time,seconds_elapsed,z,y,x
1769590510980007000,0.1500068359375,0.06208229064941406,0.0006480216979980469,0.0017931461334228516
1769590511019933700,0.18993359375,0.03349590301513672,0.002778977155685425,0.004126369953155518
1769590511059873800,0.229873779296875,0.10327339172363281,-0.005360119044780731,0.02245602011680603
1769590511099807000,0.269806884765625,-0.0022249221801757812,0.009497560560703278,-0.010928034782409668
1769590511139748400,0.309748291015625,0.11063861846923828,-0.010822989046573639,0.02317655086517334
1769590511179693600,0.349693603515625,0.004578590393066406,0.0076554566621780396,-0.03496682643890381
1769590511219633200,0.389633056640625,0.08847427368164062,-0.011376865208148956,0.01099422574043274
1769590511259569400,0.4295693359375,0.04067802429199219,0.030274733901023865,-0.01859113574028015
1769590511299510800,0.4695107421875,0.04543781280517578,-0.013172648847103119,0.03276136517524719
1769590511339451000,0.509450927734375,0.05259132385253906,0.02172832190990448,0.0029136836528778076
1769590511379389000,0.549388916015625,0.07178115844726562,-0.006640039384365082,0.013568758964538574
1769590511419327500,0.589327392578125,0.07895088195800781,0.021748729050159454,-0.00023624300956726074
1769590511459273500,0.6292734375,0.062211036682128906,0.011645130813121796,0.020787328481674194
1769590511499214000,0.669214111328125,0.05743217468261719,0.004223264753818512,-0.005787849426269531
1769590511539160800,0.709160888671875,0.09573173522949219,0.017979979515075684,0.004240363836288452
1769590511579111400,0.749111328125,0.05024528503417969,0.003193676471710205,0.016256213188171387
1769590511619060000,0.78906005859375,0.07181644439697266,0.005352146923542023,0.010749220848083496
1769590511658999600,0.82899951171875,0.055014610290527344,-0.012838706374168396,0.005478888750076294
1769590511698941000,0.86894091796875,0.03351593017578125,0.011472620069980621,0.0012876689434051514
1769590511738877200,0.908877197265625,0.10768604278564453,-0.0016831159591674805,0.027324140071868896
1769590511778790400,0.948790283203125,0.021533966064453125,0.015062510967254639,0.02360224723815918
1769590511818723800,0.988723876953125,0.09332847595214844,-0.011953234672546387,0.015352696180343628
1769590511858665000,1.0286650390625,0.06222248077392578,0.016744308173656464,0.0027175545692443848
1769590511898608400,1.0686083984375,0.06701469421386719,-0.007545992732048035,0.012290894985198975
1769590511938562300,1.108562255859375,0.064605712890625,0.025502048432826996,-0.0014082789421081543
1769590511978507500,1.148507568359375,0.09094524383544922,-0.003583677113056183,0.005773395299911499
1769590512018452700,1.18845263671875,0.09093666076660156,0.005521886050701141,0.013431817293167114
1769590512058395100,1.22839501953125,0.07658767700195312,0.015025235712528229,0.010481715202331543
1769590512098341600,1.268341552734375,0.052634239196777344,0.0024182945489883423,0.011120915412902832
1769590512138285600,1.30828564453125,0.08379364013671875,0.00038282573223114014,0.012199610471725464
1769590512178235100,1.348235107421875,0.05263519287109375,0.009034879505634308,0.025633513927459717
1769590512218178000,1.388177978515625,0.06943035125732422,-0.00017962604761123657,0.00037473440170288086
1769590512258127400,1.42812744140625,0.062221527099609375,0.011203974485397339,-0.005735278129577637
1769590512298072000,1.468072021484375,0.047870635986328125,0.0012755170464515686,0.017845332622528076
1769590512338011100,1.50801123046875,0.062225341796875,-0.00661400705575943,0.0016799867153167725
1769590512377951200,1.547951171875,0.052664756774902344,0.017218969762325287,0.00598636269569397
1769590512417895200,1.587895263671875,0.05983161926269531,-0.000293046236038208,0.021145224571228027
1769590512457834200,1.627834228515625,0.059859275817871094,0.021141037344932556,-0.0036784708499908447
1769590512497778000,1.66777783203125,0.07421112060546875,-0.010454915463924408,0.011282235383987427
1769590512537721300,1.707721435546875,0.08139801025390625,0.015529707074165344,0.004096806049346924
1769590512577627400,1.74762744140625,0.06463813781738281,-0.011140711605548859,0.018586844205856323
1769590512617564000,1.78756396484375,0.06221961975097656,0.01688653975725174,-0.004284381866455078
1769590512657514500,1.827514404296875,0.06943130493164062,-0.007051996886730194,0.004334479570388794
1769590512697451300,1.867451171875,0.016745567321777344,0.00899350643157959,0.005050569772720337
1769590512737389800,1.907389892578125,0.08381366729736328,0.01151072233915329,0.015944302082061768
1769590512777330700,1.94733056640625,0.05745220184326172,-0.0060865432024002075,0.019498765468597412
1769590512817277200,1.987277099609375,0.08620834350585938,0.008521214127540588,-0.014977633953094482
1769590512857204500,2.02720458984375,0.0765981674194336,-0.0018889904022216797,0.015186011791229248
1769590512897141200,2.067141357421875,0.062282562255859375,0.02936394512653351,-0.012908935546875
1769590512937079300,2.107079345703125,0.11253738403320312,-0.02125559002161026,0.014377474784851074
1769590512977022500,2.1470224609375,0.047924041748046875,0.005562521517276764,-0.017944395542144775
1769590513016957400,2.18695751953125,0.07424354553222656,0.0028094202280044556,0.016292423009872437
1769590513056899300,2.2268994140625,0.05510139465332031,0.0050946250557899475,-0.0032238662242889404
1769590513096837000,2.266837158203125,0.0766754150390625,-0.025564737617969513,0.010040313005447388
1769590513136772000,2.306772216796875,0.07906913757324219,-0.006639592349529266,0.0005790591239929199
1769590513176707800,2.346707763671875,0.07428836822509766,-0.006636105477809906,0.012309610843658447
1769590513216641800,2.386641845703125,0.06469917297363281,0.009652219712734222,-0.006248950958251953
1769590513256569300,2.4265693359375,0.07669353485107422,-0.009079322218894958,0.026316314935684204
1769590513296493000,2.4664931640625,0.06231498718261719,-0.0020091310143470764,-0.006727010011672974
1769590513336420900,2.5064208984375,0.0814971923828125,-0.001643449068069458,-0.019776344299316406
1769590513376355300,2.546355224609375,0.07430171966552734,0.007465772330760956,-0.002423226833343506
1769590513416295400,2.58629541015625,0.0862874984741211,0.0077963098883628845,-0.010230720043182373
1769590513456255700,2.626255859375,0.09586048126220703,-0.004522860050201416,0.00436970591545105
1769590513496207400,2.666207275390625,0.0743408203125,0.0003887489438056946,-0.001377195119857788
1769590513536164400,2.706164306640625,0.07433605194091797,-0.023777849972248077,0.008435338735580444
1769590513576127200,2.746127197265625,0.04801750183105469,0.012737028300762177,-0.001980423927307129
1769590513616077800,2.786077880859375,0.09589290618896484,-0.014066986739635468,0.008070886135101318
1769590513656014800,2.826014892578125,0.05041694641113281,0.026761233806610107,0.00040712952613830566
1769590513695949800,2.86594970703125,0.09351634979248047,-0.004711449146270752,0.012374281883239746
1769590513735886300,2.90588623046875,0.08635425567626953,-0.00709843635559082,0.0020773708820343018
1769590513775828700,2.945828857421875,0.09836006164550781,-0.00002119690179824829,0.003390401601791382
1769590513815771600,2.985771728515625,0.083953857421875,-0.010427959263324738,0.007456153631210327
1769590513855713500,3.025713623046875,0.009779930114746094,-0.007077239453792572,0.0007545351982116699
1769590513895648300,3.065648193359375,0.1031494140625,0.002506665885448456,-0.006310760974884033
1769590513935589000,3.105589111328125,0.10794544219970703,-0.0070557743310928345,0.0102042555809021
1769590513975528200,3.145528076171875,0.08402252197265625,0.005165167152881622,0.002300262451171875
1769590514015473200,3.18547314453125,0.09838676452636719,0.0005034804344177246,-0.016855895519256592
1769590514055412500,3.22541259765625,0.07682418823242188,-0.0022422075271606445,-0.0018955469131469727
1769590514095355000,3.26535498046875,0.05769634246826172,0.01033376157283783,-0.0029741525650024414
1769590514135293000,3.30529296875,0.09360790252685547,-0.013720668852329254,0.013902336359024048
1769590514175231500,3.3452314453125,0.07446002960205078,0.010799728333950043,-0.02722427248954773
1769590514215173400,3.38517333984375,0.07923603057861328,-0.016043372452259064,-0.005085110664367676
1769590514255117300,3.425117431640625,0.057684898376464844,0.0033832043409347534,-0.0074746012687683105
1769590514295053600,3.465053466796875,0.11754798889160156,-0.0011661574244499207,0.011320561170578003
1769590514334991400,3.504991455078125,0.052886962890625,-0.005958139896392822,0.002342790365219116
1769590514374930200,3.54493017578125,0.028959274291992188,-0.012772411108016968,-0.02938970923423767
1769590514414870000,3.5848701171875,0.07683277130126953,-0.00798036903142929,0.014063358306884766
1769590514454811000,3.624810791015625,0.09600543975830078,-0.000315934419631958,0.010830879211425781
1769590514494756900,3.6647568359375,0.060085296630859375,-0.010131888091564178,-0.007963895797729492
1769590514534699300,3.70469921875,0.09122943878173828,-0.005216605961322784,0.008075326681137085
1769590514574644000,3.74464404296875,0.06250476837158203,0.002085573971271515,-0.006529062986373901
1769590514614583000,3.7845830078125,0.11038875579833984,0.004490606486797333,0.0054381489753723145
1769590514654530800,3.82453076171875,0.09364509582519531,-0.00029418617486953735,0.00017011165618896484
1769590514694477000,3.86447705078125,0.07688713073730469,0.007004372775554657,0.004840224981307983
1769590514734425900,3.90442578125,0.10083484649658203,0.004729747772216797,-0.014552563428878784
1769590514774377000,3.944376953125,0.06013679504394531,0.00006458163261413574,-0.0003082752227783203
1769590514814331000,3.984330810546875,0.11043071746826172,-0.009628213942050934,-0.007970631122589111
1769590514854283000,4.024282958984375,0.04101085662841797,-0.00494847446680069,-0.001150667667388916
1769590514894232600,4.064232666015625,0.07215404510498047,-0.00015283375978469849,-0.0017512142658233643
1769590514934129200,4.104129150390625,0.0721578598022461,-0.017263099551200867,0.005428344011306763
1769590514974062000,4.14406201171875,0.06499004364013672,-0.0032528936862945557,-0.00929686427116394
1769590515014000400,4.18400048828125,0.12004852294921875,-0.010545819997787476,-0.01143231987953186
1769590515053953800,4.223953857421875,0.07695198059082031,-0.013150535523891449,-0.023264408111572266
1769590515093899500,4.2638994140625,0.0841360092163086,-0.0013865679502487183,-0.008855313062667847
1769590515133849000,4.30384912109375,0.09850502014160156,-0.006400376558303833,-0.006509602069854736
1769590515173790000,4.3437900390625,0.055426597595214844,0.01251450926065445,-0.004599422216415405
1769590515213737700,4.38373779296875,0.11768627166748047,-0.004839114844799042,0.007250726222991943
1769590515253684200,4.423684326171875,0.08896923065185547,0.002111665904521942,-0.00747603178024292
1769590515293637600,4.4636376953125,0.11052227020263672,-0.005262903869152069,-0.012372463941574097
1769590515333589500,4.503589599609375,0.0889739990234375,-0.0058609917759895325,-0.00016224384307861328
1769590515373552000,4.54355224609375,0.07701492309570312,-0.005734093487262726,-0.0006434023380279541
1769590515413506300,4.58350634765625,0.08659553527832031,-0.015517763793468475,-0.0078410804271698
1769590515453464300,4.62346435546875,0.050689697265625,-0.001326628029346466,-0.005619734525680542
1769590515493416400,4.66341650390625,0.0722494125366211,0.0033892393112182617,-0.022747337818145752
1769590515533370000,4.7033701171875,0.05788421630859375,-0.004057727754116058,-0.02266991138458252
1769590515573317600,4.743317626953125,0.05787944793701172,-0.0017831027507781982,0.020665019750595093
1769590515613259500,4.783259521484375,0.06747245788574219,0.0034799352288246155,0.005583733320236206
1769590515653201700,4.82320166015625,0.07944393157958984,-0.00848747044801712,-0.013571202754974365
1769590515693150500,4.863150390625,0.10818099975585938,-0.0013011470437049866,0.019707173109054565
1769590515733095400,4.903095458984375,0.07227516174316406,-0.02020817995071411,-0.009343266487121582
1769590515773012200,4.94301220703125,0.08424949645996094,-0.012949138879776001,-0.009472131729125977
1769590515812951300,4.982951416015625,0.11059379577636719,-0.008145205676555634,-0.00018092989921569824
1769590515852895000,5.02289501953125,0.06990432739257812,0.013043917715549469,-0.009996801614761353
1769590515892831000,5.0628310546875,0.1130056381225586,-0.0038313716650009155,-0.005329400300979614
1769590515932774000,5.10277392578125,0.10583972930908203,0.008017100393772125,-0.008235543966293335
1769590515972723000,5.142722900390625,0.07231998443603516,-0.0021576732397079468,-0.0056021809577941895
1769590516012668000,5.18266796875,0.08190345764160156,0.002277858555316925,-0.01525181531906128
1769590516052594200,5.22259423828125,0.09627628326416016,-0.007411256432533264,0.006054431200027466
1769590516092536000,5.2625361328125,0.0819091796875,0.013613834977149963,-0.02718716859817505
1769590516132479700,5.302479736328125,0.053183555603027344,-0.026909247040748596,-0.010646164417266846
1769590516172436700,5.342436767578125,0.10583972930908203,-0.0033665522933006287,-0.019547641277313232
1769590516212378000,5.382378173828125,0.09146404266357422,-0.010342001914978027,-0.012126177549362183
1769590516252319200,5.4223193359375,0.09385204315185547,-0.003422364592552185,0.007355391979217529
1769590516292265000,5.462264892578125,0.09626388549804688,-0.01271452009677887,-0.007700681686401367
1769590516332221400,5.502221435546875,0.11539554595947266,-0.015257202088832855,-0.009341895580291748
1769590516372168400,5.54216845703125,0.10583782196044922,-0.005585215985774994,-0.017178654670715332
1769590516412118000,5.582117919921875,0.10580730438232422,-0.015622995793819427,-0.006427258253097534
1769590516452060700,5.622060791015625,0.0651388168334961,0.022766128182411194,-0.019474148750305176
1769590516492009000,5.662009033203125,0.12020301818847656,-0.006280943751335144,-0.0001607835292816162
1769590516531955700,5.701955810546875,0.07232475280761719,-0.0016804933547973633,-0.005042374134063721
1769590516571910700,5.74191064453125,0.11062908172607422,-0.01873920112848282,-0.009644657373428345
1769590516611857200,5.781857177734375,0.08670616149902344,0.0051429420709609985,-0.017425954341888428
1769590516651805700,5.8218056640625,0.07470130920410156,-0.038350626826286316,0.014951229095458984
1769590516691758000,5.861758056640625,0.07713603973388672,0.012397490441799164,-0.029645085334777832
1769590516731708700,5.901708740234375,0.0819091796875,-0.033088214695453644,0.009140819311141968
1769590516771661300,5.941661376953125,0.055588722229003906,0.014205239713191986,-0.0054665207862854
1769590516811616000,5.981615966796875,0.09628963470458984,-0.009567610919475555,-0.029489248991012573
1769590516851570400,6.0215703125,0.0819091796875,-0.0005089044570922852,-0.007241606712341309
1769590516891530000,6.061530029296875,0.09873485565185547,-0.006905749440193176,0.0023147165775299072
1769590516931486500,6.101486572265625,0.0986795425415039,-0.02219279110431671,-0.009941786527633667
1769590516971443700,6.141443603515625,0.07232475280761719,-0.05379902943968773,-0.038770705461502075
1769590517011391000,6.181390869140625,0.057946205139160156,-0.04562117159366608,0.04747968912124634
1769590517051347700,6.22134765625,0.06278610229492188,0.18280813097953796,-0.058116257190704346
1769590517091302700,6.261302734375,0.22075366973876953,0.1335306614637375,0.022120684385299683
1769590517131259600,6.301259765625,0.08215713500976562,0.1762194186449051,0.07647597789764404
1769590517171228200,6.341228271484375,0.1085958480834961,-0.010428011417388916,0.031075477600097656
1769590517211202600,6.38120263671875,0.11331653594970703,-0.14790399372577667,-0.054848551750183105
1769590517251172600,6.421172607421875,-0.018463134765625,-0.26101210713386536,-0.03503867983818054
1769590517291143400,6.461143310546875,0.12253570556640625,-0.1764839142560959,-0.045931100845336914
1769590517331109000,6.501109130859375,0.10080814361572266,-0.08058655261993408,-0.02591150999069214
1769590517371069700,6.541069580078125,0.0744333267211914,0.01924651861190796,0.008280724287033081
1769590517411026000,6.58102587890625,0.10795402526855469,0.05531536787748337,-0.02054440975189209
1769590517450982100,6.620982177734375,0.093505859375,0.060114458203315735,0.021355032920837402
1769590517490933000,6.66093310546875,0.07208919525146484,0.1253221333026886,-0.0006698369979858398
1769590517530882300,6.70088232421875,0.13198184967041016,0.09134231507778168,0.02260380983352661
1769590517570835700,6.740835693359375,0.07464599609375,0.08226250857114792,0.009196937084197998
1769590517610783000,6.780782958984375,0.10101032257080078,-0.047825753688812256,0.00858411192893982
1769590517650723800,6.820723876953125,0.0507354736328125,-0.080664724111557,-0.013345271348953247
1769590517690671000,6.860671142578125,0.11055660247802734,-0.08740450441837311,-0.006254315376281738
1769590517730620700,6.90062060546875,0.06021595001220703,-0.07817185670137405,-0.010712027549743652
1769590517770571000,6.940571044921875,0.09606742858886719,-0.05992332100868225,0.0017610788345336914
1769590517810524000,6.98052392578125,0.079254150390625,-0.02233545482158661,-0.018583863973617554
1769590517850476500,7.0204765625,0.10078907012939453,-0.0073037296533584595,0.015089035034179688
1769590517890434800,7.060434814453125,0.10558509826660156,0.025863423943519592,-0.006581217050552368
1769590517930400800,7.10040087890625,0.1032114028930664,0.023233577609062195,0.000001996755599975586
1769590517970362400,7.1403623046875,0.09123706817626953,0.04614664614200592,0.007664412260055542
1769590518010317000,7.180317138671875,0.09365081787109375,0.02167375385761261,0.007266193628311157
1769590518050271200,7.220271240234375,0.07208061218261719,-0.012436017394065857,0.008220434188842773
1769590518090226200,7.26022607421875,0.08887577056884766,-0.04271046817302704,0.009107410907745361
1769590518130174500,7.300174560546875,0.08884525299072266,-0.044537074863910675,-0.018816828727722168
1769590518170122800,7.340122802734375,0.16066646575927734,-0.015210248529911041,-0.026069074869155884
1769590518210075100,7.3800751953125,0.095977783203125,-0.043411985039711,0.011126518249511719
1769590518250025200,7.420025146484375,0.038535118103027344,0.016860641539096832,-0.01836523413658142
1769590518289973800,7.459973876953125,0.13904762268066406,-0.03827627748250961,0.0022882819175720215
1769590518329923800,7.499923828125,0.07682228088378906,0.02373746782541275,-0.005613476037979126
1769590518369872600,7.53987255859375,0.10557842254638672,-0.012527398765087128,0.020002901554107666
1769590518409826000,7.579825927734375,0.11034584045410156,0.027220815420150757,0.016289442777633667
1769590518449778200,7.619778076171875,0.06966876983642578,0.003398410975933075,0.005875319242477417
1769590518489738500,7.659738525390625,0.08882331848144531,0.02427995204925537,-0.0010969042778015137
1769590518529685000,7.69968505859375,0.06728744506835938,-0.019294284284114838,0.005846768617630005
1769590518569640400,7.739640380859375,0.06968021392822266,-0.019681736826896667,0.0036720633506774902
1769590518609598700,7.7795986328125,0.07209396362304688,-0.012463755905628204,-0.006583362817764282
1769590518649638100,7.81963818359375,0.12234115600585938,-0.010972358286380768,0.009196370840072632
1769590518689589200,7.85958935546875,0.07689285278320312,0.0016039460897445679,-0.01402890682220459
1769590518729540000,7.8995400390625,0.09125900268554688,-0.005933903157711029,0.005243033170700073
1769590518769488600,7.939488525390625,0.05776691436767578,0.0035341009497642517,-0.005175292491912842
1769590518809440500,7.9794404296875,0.10804080963134766,-0.013700097799301147,0.0023647844791412354
1769590518849392400,8.019392333984374,0.07453250885009766,0.005457177758216858,-0.009966611862182617
1769590518889332700,8.059332763671875,0.14157485961914062,-0.006865546107292175,0.016367077827453613
1769590518929278000,8.09927783203125,0.07694816589355469,0.009648740291595459,0.030230164527893066
1769590518969224400,8.139224365234375,0.10089874267578125,-0.004832476377487183,0.006047636270523071
1769590519009179400,8.179179443359375,0.08174896240234375,0.009170345962047577,0.001260608434677124
1769590519049139000,8.219138916015625,0.07218456268310547,-0.01991894096136093,0.008204042911529541
1769590519089093400,8.25909326171875,0.11050128936767578,-0.006028667092323303,-0.003888070583343506
1769590519129047000,8.299047119140624,0.06980609893798828,-0.020452313125133514,-0.004087537527084351
1769590519168997000,8.3389970703125,0.10093212127685547,-0.01599915325641632,0.01274794340133667
1769590519208953600,8.37895361328125,0.053084373474121094,-0.015688076615333557,-0.026883602142333984
1769590519248893000,8.418892822265626,0.0889596939086914,-0.023284561932086945,-0.0038985908031463623
1769590519288842500,8.458842529296875,0.0985269546508789,-0.013083010911941528,-0.006212174892425537
1769590519328787200,8.498787109375,0.09375667572021484,-0.024997279047966003,-0.0020711421966552734
1769590519368736800,8.53873681640625,0.09375,0.0032992511987686157,-0.013635247945785522
1769590519408685800,8.578685791015625,0.09614753723144531,-0.018458694219589233,0.007866472005844116
1769590519448635600,8.6186357421875,0.084197998046875,0.0028535202145576477,0.0024787485599517822
1769590519488573700,8.65857373046875,0.09135913848876953,-0.01899099349975586,0.010468453168869019
1769590519528502800,8.698502685546876,0.06505489349365234,0.019674770534038544,-0.017062991857528687
1769590519568437000,8.73843701171875,0.12490367889404297,-0.006848588585853577,-0.011994242668151855
1769590519608382700,8.7783828125,0.05547904968261719,0.017151139676570892,-0.005056113004684448
1769590519648327200,8.8183271484375,0.08422088623046875,-0.014332316815853119,0.001887500286102295
1769590519688273400,8.8582734375,0.09616756439208984,-0.019558429718017578,0.0052602291107177734
1769590519728219400,8.898219482421876,0.07703876495361328,0.001996643841266632,0.01639115810394287
1769590519768146700,8.938146728515624,0.07942962646484375,-0.00541803240776062,-0.012103080749511719
1769590519808090000,8.978090087890624,0.06026649475097656,-0.02004154771566391,0.002641022205352783
1769590519848040000,9.0180400390625,0.0722341537475586,0.011086687445640564,0.0003649592399597168
1769590519887986700,9.057986572265625,0.09380054473876953,-0.015007279813289642,-0.014713764190673828
1769590519927942700,9.097942626953126,0.07700347900390625,-0.00579080730676651,-0.003728628158569336
1769590519967896600,9.137896484375,0.0961761474609375,-0.012576863169670105,-0.009330302476882935
1769590520007850000,9.17785009765625,0.10573673248291016,-0.007704474031925201,0.010315924882888794
1769590520047797500,9.217797607421875,0.0913839340209961,0.009297758340835571,-0.004529058933258057
1769590520087749000,9.2577490234375,0.12010955810546875,-0.012485608458518982,-0.0018971562385559082
1769590520127705600,9.29770556640625,0.08421611785888672,-0.021624065935611725,0.0068611204624176025
1769590520167665200,9.3376650390625,0.11293792724609375,-0.005117654800415039,0.000055342912673950195
1769590520207624700,9.377624755859374,0.038753509521484375,0.011765025556087494,-0.0035365521907806396
1769590520247588600,9.417588623046875,0.10339546203613281,0.0019525960087776184,-0.005812585353851318
1769590520287537700,9.45753759765625,0.08184623718261719,0.0017182976007461548,-0.015258610248565674
1769590520327493400,9.497493408203125,0.06749916076660156,-0.009827286005020142,-0.0112379789352417
1769590520367446500,9.537446533203125,0.07465934753417969,-0.02881072461605072,0.0038368701934814453
1769590520407403300,9.5774033203125,0.09862709045410156,0.009834781289100647,-0.025893837213516235
1769590520447357700,9.617357666015625,0.07946300506591797,-0.019276045262813568,0.017697274684906006
1769590520487317200,9.657317138671875,0.07946205139160156,0.0093940868973732,-0.020554155111312866
1769590520527273700,9.697273681640626,0.11061573028564453,-0.016697697341442108,-0.0024634897708892822
1769590520567234600,9.737234619140626,0.09383869171142578,-0.009875930845737457,0.007861286401748657
1769590520607195100,9.777195068359376,0.0842885971069336,-0.007164649665355682,-0.00990605354309082
1769590520647153000,9.81715283203125,0.07946491241455078,-0.014786235988140106,0.010564267635345459
1769590520687111700,9.857111572265625,0.10823726654052734,0.01921120285987854,0.004220515489578247
1769590520727073500,9.897073486328125,0.10584831237792969,-0.030988670885562897,-0.0031584203243255615
1769590520767039200,9.937039306640624,0.09865283966064453,-0.004913344979286194,-0.005030214786529541
1769590520807006200,9.977006103515626,0.10824012756347656,-0.0188070610165596,0.018378257751464844
1769590520846972000,10.016971923828125,0.057976722717285156,0.012324884533882141,-0.008439302444458008
1769590520886943000,10.05694287109375,0.10346031188964844,-0.009346269071102142,0.006166636943817139
1769590520926906400,10.09690625,0.0675506591796875,-0.021183311939239502,-0.022721409797668457
1769590520966867200,10.1368671875,0.125030517578125,0.002644158899784088,-0.01611652970314026
1769590521006828000,10.176828125,0.20876693725585938,-0.05269622057676315,0.053014904260635376
1769590521046790700,10.216790771484375,0.34034061431884766,0.07569544017314911,0.4413515329360962
1769590521086731500,10.2567314453125,-0.5733842849731445,-0.45817819237709045,0.025510713458061218
1769590521126688000,10.29668798828125,0.14736366271972656,0.2055101841688156,-0.17644599080085754
1769590521166643000,10.336642822265626,0.1307535171508789,0.11043184995651245,0.04265753924846649
1769590521206597600,10.37659765625,0.09729576110839844,0.05053950846195221,-0.06583543121814728
1769590521246546400,10.41654638671875,0.10451221466064453,0.01771889626979828,-0.04202313721179962
1769590521286502700,10.456502685546875,0.07340145111083984,0.021651312708854675,-0.044275104999542236
1769590521326457000,10.49645703125,0.07576942443847656,-0.025901302695274353,-0.06971298158168793
1769590521366419700,10.536419677734376,0.11884117126464844,0.02417200803756714,-0.05883347988128662
1769590521406377200,10.576377197265625,0.08044052124023438,0.002277389168739319,-0.07317307591438293
1769590521446342000,10.616341796875,0.08040237426757812,-0.003711506724357605,-0.04369933903217316
1769590521486301200,10.65630126953125,0.08278274536132812,-0.0017315447330474854,-0.05676867067813873
1769590521526260000,10.696260009765625,0.10185432434082031,-0.030640453100204468,-0.06913724541664124
1769590521566218000,10.736218017578125,0.056308746337890625,-0.011962175369262695,-0.046550363302230835
1769590521606177800,10.776177734375,0.03238868713378906,-0.003148511052131653,-0.05351877212524414
1769590521646131200,10.816131103515625,0.08569145202636719,-0.007778182625770569,-0.03513161838054657
1769590521686083000,10.8560830078125,0.08090782165527344,-0.013884887099266052,-0.02164103090763092
1769590521726043100,10.896043212890625,0.09286212921142578,-0.0037179291248321533,-0.030896514654159546
1769590521766003500,10.93600341796875,0.09760475158691406,-0.005274876952171326,-0.03439030051231384
1769590521805960200,10.975960205078126,0.09518623352050781,0.011867478489875793,-0.03367224335670471
1769590521845918700,11.015918701171875,0.06644535064697266,-0.028334006667137146,-0.007199794054031372
1769590521885875000,11.055875,0.09755706787109375,-0.0015216320753097534,-0.02612455189228058
1769590521925833200,11.095833251953126,0.07600593566894531,-0.0012408643960952759,-0.021391049027442932
1769590521965785600,11.13578564453125,0.10232925415039062,0.015754640102386475,-0.03535690903663635
1769590522005752000,11.175751953125,0.078369140625,-0.022065147757530212,-0.018172547221183777
1769590522045715000,11.21571484375,0.09510993957519531,-0.014391764998435974,-0.020135462284088135
1769590522085681000,11.255680908203125,0.10705947875976562,-0.002041831612586975,-0.029056474566459656
1769590522125635300,11.29563525390625,0.07593441009521484,-0.020763009786605835,0.004191234707832336
1769590522165596200,11.33559619140625,0.0735330581665039,0.007958725094795227,-0.021838203072547913
1769590522205562000,11.37556201171875,0.09027099609375,-0.032155342400074005,-0.026091381907463074
1769590522245525200,11.415525146484375,0.07590579986572266,0.037236690521240234,-0.018915876746177673
1769590522285483500,11.4554833984375,0.07591724395751953,-0.015018656849861145,-0.005262970924377441
1769590522325447000,11.495447021484376,0.09510326385498047,0.002841353416442871,-0.038356080651283264
1769590522365409300,11.5354091796875,0.10230445861816406,0.003537505865097046,-0.02031537890434265
1769590522405372200,11.5753720703125,0.09752178192138672,-0.0008821189403533936,-0.015999093651771545
1769590522445337300,11.61533740234375,0.0855703353881836,0.011366233229637146,-0.007392987608909607
1769590522485307600,11.6553076171875,0.07840156555175781,-0.005025818943977356,-0.010483413934707642
1769590522525268200,11.695268310546876,0.09276771545410156,-0.0022425800561904907,-0.020382806658744812
1769590522565184300,11.735184326171876,0.1167154312133789,-0.0043243467807769775,-0.018374204635620117
1769590522605136000,11.775135986328126,0.08079910278320312,-0.013387367129325867,-0.006590023636817932
1769590522645089500,11.815089599609376,0.08797073364257812,-0.008125647902488708,-0.030362412333488464
1769590522685045500,11.85504541015625,0.0903615951538086,-0.0009382069110870361,-0.008676961064338684
1769590522725006600,11.895006591796875,0.09275245666503906,-0.012728258967399597,-0.008638650178909302
1769590522764974800,11.934974853515625,0.07119941711425781,-0.007880687713623047,-0.010886088013648987
1769590522804941800,11.97494189453125,0.09275436401367188,0.004209965467453003,0.0007260143756866455
1769590522844914400,12.01491455078125,0.10473346710205078,0.03989732265472412,-0.02578309178352356
1769590522884880400,12.05488037109375,0.06882858276367188,-0.020071357488632202,0.024252325296401978
1769590522924839200,12.094839111328126,0.10713863372802734,0.04163344204425812,-0.035411983728408813
1769590522964795100,12.134795166015625,0.09996414184570312,-0.011333748698234558,-0.006825953722000122
1769590523004753000,12.1747529296875,0.061656951904296875,0.027062520384788513,0.00028483569622039795
1769590523044713200,12.214713134765624,0.08320903778076172,-0.00414334237575531,-0.02376396954059601
1769590523084673300,12.25467333984375,0.08320903778076172,-0.00902770459651947,-0.00932079553604126
1769590523124637200,12.29463720703125,0.0927877426147461,-0.0019426047801971436,-0.004562556743621826
1769590523164599000,12.33459912109375,0.09038925170898438,-0.018536046147346497,-0.009280472993850708
1769590523204558800,12.374558837890625,0.0999593734741211,-0.013428300619125366,0.005166694521903992
1769590523244521500,12.414521484375,0.09277820587158203,0.0011193156242370605,-0.011746793985366821
1769590523284482800,12.45448291015625,0.1047515869140625,0.007970422506332397,-0.016463443636894226
1769590523324426000,12.494426025390625,0.12389469146728516,0.014830514788627625,-0.023067951202392578
1769590523364373500,12.53437353515625,0.09756946563720703,0.00042948126792907715,-0.0042928606271743774
1769590523404324400,12.574324462890624,0.09517288208007812,0.009547308087348938,-0.02550274133682251
1769590523444279600,12.614279541015625,0.087982177734375,0.009226351976394653,-0.0010244250297546387
1769590523484235000,12.654235107421876,0.054457664489746094,-0.005375131964683533,-0.000667273998260498
1769590523524186400,12.694186279296876,0.08795166015625,0.011286705732345581,-0.035540834069252014
1769590523564139800,12.734139892578124,0.11188983917236328,-0.01756332814693451,0.012582480907440186
1769590523604097000,12.774096923828125,0.06879329681396484,-0.003603532910346985,-0.018265187740325928
1769590523644052000,12.814052001953126,0.08314323425292969,-0.027489162981510162,-0.008119776844978333
1769590523684011500,12.854011474609376,0.11425209045410156,-0.01524883508682251,-0.01486082375049591
1769590523723968300,12.89396826171875,0.07592105865478516,-0.02200169861316681,-0.016570478677749634
1769590523763895300,12.933895263671875,0.09027671813964844,0.0041711777448654175,-0.00889509916305542
1769590523803848700,12.9738486328125,0.0902700424194336,0.006498456001281738,-0.008583128452301025
1769590523843805400,13.013805419921875,0.08786678314208984,-0.015392601490020752,-0.00795622169971466
1769590523883756500,13.053756591796875,0.049553871154785156,0.003585308790206909,-0.01483212411403656
1769590523923708000,13.0937080078125,0.09263801574707031,0.0031098276376724243,-0.0021452009677886963
1769590523963663400,13.133663330078125,0.0686960220336914,0.02646300196647644,0.005432844161987305
1769590524003622400,13.173622314453125,0.10939216613769531,0.009318113327026367,-0.03008390963077545
1769590524043575800,13.213575927734375,0.10938549041748047,-0.022077113389968872,-0.008091539144515991
1769590524083535600,13.25353564453125,0.09023475646972656,-0.005667790770530701,0.013570547103881836
1769590524123502300,13.29350244140625,0.08304309844970703,-0.005595311522483826,-0.014825329184532166
1769590524163467300,13.33346728515625,0.0758504867553711,-0.007998943328857422,-0.014418274164199829
1769590524203424000,13.373424072265625,0.09498214721679688,-0.014970764517784119,-0.035193055868148804
1769590524243385000,13.413385009765625,0.10215473175048828,-0.026963278651237488,0.010750547051429749
1769590524283341000,13.453341064453125,0.08538532257080078,0.004164785146713257,-0.005666643381118774
1769590524323302400,13.493302490234376,0.10214805603027344,-0.012914478778839111,0.013604298233985901
1769590524363253800,13.533253662109376,0.08299446105957031,-0.008088722825050354,0.006392776966094971
1769590524403203300,13.573203369140625,0.07101917266845703,-0.02436448633670807,0.013443231582641602
1769590524443155000,13.613155029296875,0.09256553649902344,-0.002815529704093933,-0.0008269995450973511
1769590524483111200,13.653111083984374,0.09734725952148438,0.0019786804914474487,-0.010168120265007019
1769590524523064000,13.69306396484375,0.11171245574951172,0.006775796413421631,-0.0029908567667007446
1769590524563024600,13.733024658203124,0.08059024810791016,-0.0049501508474349976,-0.012810483574867249
1769590524602984200,13.772984130859374,0.09016227722167969,-0.014314994215965271,0.0016104131937026978
1769590524642949000,13.81294921875,0.08776473999023438,0.0002924203872680664,-0.0055740028619766235
1769590524682903300,13.8529033203125,0.07100486755371094,-0.006887301802635193,-0.000787392258644104
1769590524722865000,13.892864990234376,0.0925445556640625,-0.018537908792495728,0.0017685890197753906
1769590524762825200,13.9328251953125,0.07339000701904297,-0.02778410166501999,-0.00317363440990448
1769590524802783200,13.972783203125,0.07098865509033203,-0.0059057921171188354,-0.005487203598022461
1769590524842736000,14.012736083984375,0.08774280548095703,0.003671020269393921,-0.002853676676750183
1769590524882689800,14.052689697265626,0.09012985229492188,0.02239556610584259,-0.016704201698303223
1769590524922640400,14.092640380859375,0.11167240142822266,0.0032419711351394653,-0.004493936896324158
1769590524962602000,14.13260205078125,0.0709695816040039,0.0129929780960083,-0.0021567940711975098
1769590525002559000,14.17255908203125,0.09969711303710938,-0.008554786443710327,-0.009219720959663391
1769590525042518000,14.21251806640625,0.08292865753173828,-0.006214439868927002,-0.02554747462272644
1769590525082482000,14.25248193359375,0.03983306884765625,-0.015933766961097717,0.008039548993110657
1769590525122449200,14.29244921875,0.10686874389648438,0.0033394843339920044,-0.0015373677015304565
1769590525162414000,14.3324140625,0.10207271575927734,-0.01111149787902832,-0.022701501846313477
1769590525202386400,14.372386474609375,0.05658149719238281,-0.01104666292667389,0.010839462280273438
1769590525242352000,14.41235205078125,0.06614398956298828,-0.0012260526418685913,-0.03181615471839905
1769590525282321700,14.45232177734375,0.0924673080444336,-0.0247662216424942,0.004371076822280884
1769590525322287600,14.49228759765625,0.09964847564697266,0.008632928133010864,0.02125014364719391
1769590525362254000,14.532254150390624,0.10203742980957031,-0.019956424832344055,-0.009718507528305054
1769590525402209800,14.572209716796875,0.1068258285522461,0.013562440872192383,0.011829301714897156
1769590525442118700,14.61211865234375,0.0781097412109375,-0.013129159808158875,0.0018916726112365723
1769590525482061000,14.65206103515625,0.07811927795410156,-0.006177157163619995,-0.007929682731628418
1769590525522008300,14.69200830078125,0.09249019622802734,-0.006410583853721619,0.011100783944129944
1769590525561967600,14.731967529296876,0.09010124206542969,0.002810150384902954,0.008704811334609985
1769590525601927000,14.771927001953125,0.06136798858642578,0.007362142205238342,-0.01739390194416046
1769590525641875000,14.811875,0.07574081420898438,-0.011905297636985779,-0.0008773356676101685
1769590525681829600,14.85182958984375,0.13566875457763672,-0.029211558401584625,0.03333362936973572
1769590525721785000,14.89178515625,0.12947463989257812,-0.002073228359222412,0.02221071720123291
1769590525761751600,14.93175146484375,0.05760478973388672,-0.0008646994829177856,0.014662891626358032
1769590525801714000,14.9717138671875,0.09833049774169922,-0.005294010043144226,0.006522804498672485
1769590525841683000,15.011682861328126,0.08396625518798828,0.0020289868116378784,-0.02233096957206726
1769590525881642800,15.051642822265626,0.08635997772216797,-0.03148304671049118,0.013600319623947144
1769590525921598500,15.091598388671875,0.10552692413330078,0.025745511054992676,-0.015492141246795654
1769590525961544700,15.131544677734375,0.057651519775390625,-0.0250098779797554,0.005969882011413574
1769590526001490700,15.17149072265625,0.09836578369140625,0.0012612342834472656,-0.011192083358764648
1769590526041439200,15.211439208984375,0.0672454833984375,-0.015376746654510498,0.0005996227264404297
1769590526081387800,15.2513876953125,0.09597110748291016,-0.017844393849372864,-0.01119375228881836
1769590526121336600,15.291336669921876,0.1079397201538086,0.008128643035888672,-0.02769339084625244
1769590526161294600,15.331294677734375,0.07682323455810547,-0.011163778603076935,0.0031825900077819824
1769590526201242600,15.37124267578125,0.11274909973144531,0.002842530608177185,0.0005491077899932861
1769590526241199000,15.41119921875,0.08401870727539062,-0.04004334658384323,-0.0019525587558746338
1769590526281150500,15.451150390625,0.10077571868896484,0.0077874064445495605,-0.025812476873397827
1769590526321096000,15.491095947265626,0.07683277130126953,-0.01622961461544037,-0.008987963199615479
1769590526361049300,15.53104931640625,0.11034965515136719,-0.013934828341007233,-0.008862555027008057
1769590526401010000,15.571010009765626,0.10795974731445312,-0.004441484808921814,0.0005989968776702881
1769590526440970800,15.610970703125,0.09838294982910156,-0.0021713674068450928,-0.01370847225189209
1769590526480936000,15.65093603515625,0.0768442153930664,-0.0024036765098571777,0.005202770233154297
1769590526520898800,15.69089892578125,0.10558605194091797,0.0018382817506790161,-0.014054834842681885
1769590526560864000,15.730864013671875,0.06488609313964844,-0.019848421216011047,-0.011665642261505127
1769590526600828200,15.770828125,0.1271505355834961,-0.000807449221611023,0.009400516748428345
1769590526640795400,15.81079541015625,0.08405303955078125,-0.015226311981678009,-0.009625017642974854
1769590526680758300,15.85075830078125,0.11997032165527344,0.0014169514179229736,0.0022248029708862305
1769590526720723200,15.89072314453125,0.07927417755126953,-0.02710907906293869,-0.0004436671733856201
1769590526760687600,15.9306875,0.08885383605957031,-0.005590692162513733,-0.0005019605159759521
1769590526800601300,15.970601318359375,0.08645153045654297,-0.024666883051395416,-0.014637619256973267
1769590526840543500,16.01054345703125,0.06488990783691406,-0.003111213445663452,-0.011780500411987305
1769590526880492500,16.050492431640624,0.07925033569335938,-0.003300994634628296,-0.013934820890426636
1769590526920453400,16.090453369140626,0.08641815185546875,-0.024898044764995575,-0.01581054925918579
1769590526960417800,16.130417724609377,0.07922840118408203,0.005921646952629089,-0.02018144726753235
1769590527000373800,16.170373779296874,0.0672445297241211,-0.011003442108631134,-0.0029453635215759277
1769590527040324400,16.210324462890625,0.09597492218017578,-0.006359919905662537,0.004308521747589111
1769590527080278500,16.250278564453126,0.0887918472290039,-0.00873979926109314,-0.012436002492904663
1769590527120232000,16.29023193359375,0.11754322052001953,-0.024887211620807648,0.046422868967056274
1769590527160188200,16.330188232421875,0.060199737548828125,0.003574565052986145,-0.03031104803085327
1769590527200144100,16.37014404296875,0.1056671142578125,-0.008867926895618439,0.006556034088134766
1769590527240095200,16.41009521484375,0.09128284454345703,-0.0023957937955856323,0.017086297273635864
1769590527280051000,16.450051025390625,0.09848308563232422,-0.016510188579559326,-0.009933173656463623
1769590527320010200,16.49001025390625,0.08649921417236328,-0.014109291136264801,-0.014319419860839844
1769590527359968300,16.52996826171875,0.06973552703857422,-0.016709014773368835,-0.004483938217163086
1769590527399924500,16.569924560546873,0.08410358428955078,-0.0001833587884902954,-0.009270131587982178
1769590527439882500,16.609882568359374,0.09607410430908203,-0.009881459176540375,0.00276339054107666
1769590527479840500,16.649840576171876,0.08649349212646484,-0.012365005910396576,0.002914518117904663
1769590527519803000,16.689802978515626,0.10085773468017578,-0.007538095116615295,-0.016214311122894287
1769590527559760400,16.729760498046875,0.07690620422363281,-0.0027496665716171265,-0.011128902435302734
1769590527599711500,16.76971142578125,0.10323905944824219,-0.01742038130760193,0.005938053131103516
1769590527639660300,16.809660400390626,0.08169174194335938,-0.01053772121667862,-0.0035673677921295166
1769590527679613200,16.84961328125,0.08408641815185547,-0.010616280138492584,0.0036465227603912354
1769590527719564000,16.88956396484375,0.10084819793701172,-0.005827322602272034,0.0011577308177947998
1769590527759492400,16.929492431640625,0.06014442443847656,-0.025002993643283844,-0.010684341192245483
1769590527799444700,16.96944482421875,0.09604835510253906,-0.010419555008411407,0.0014698803424835205
1769590527839402500,17.009402587890627,0.09124946594238281,-0.0058211833238601685,-0.007657557725906372
1769590527879355400,17.04935546875,0.10801219940185547,-0.003662705421447754,0.01628291606903076
1769590527919315700,17.089315673828125,0.07927703857421875,-0.020318254828453064,-0.002740323543548584
1769590527959272400,17.1292724609375,0.0673055648803711,-0.0036982297897338867,-0.01225137710571289
1769590527999233500,17.169233642578124,0.11519241333007812,-0.011121056973934174,0.009309440851211548
1769590528039193600,17.209193603515626,0.096038818359375,-0.011172167956829071,-0.009865790605545044
1769590528079152600,17.249152587890624,0.08884525299072266,-0.02300204336643219,-0.004700452089309692
1769590528119108600,17.289108642578125,0.08644866943359375,-0.011024050414562225,0.0025418996810913086
1769590528159068700,17.329068603515626,0.06728553771972656,-0.008671164512634277,-0.006711095571517944
1769590528198978000,17.36897802734375,0.10319709777832031,-0.010754279792308807,-0.01396709680557251
1769590528238927600,17.408927734375,0.0960073471069336,-0.02259857952594757,-0.0018308162689208984
1769590528278883600,17.448883544921873,0.09361839294433594,-0.0032645314931869507,-0.0068420469760894775
1769590528318855700,17.488855712890626,0.10797691345214844,-0.026800982654094696,0.012335896492004395
1769590528358819000,17.528819091796876,0.07446765899658203,0.009308338165283203,-0.016779214143753052
1769590528398786000,17.5687861328125,0.1079854965209961,-0.02881000190973282,0.009477972984313965
1769590528438753800,17.60875390625,0.08644294738769531,0.006986871361732483,0.00696253776550293
1769590528478722300,17.648722412109375,0.10799407958984375,-0.01903410255908966,0.0019362568855285645
1769590528518681300,17.688681396484377,0.07926464080810547,-0.004591614007949829,-0.0029511749744415283
1769590528558643700,17.728643798828124,0.09842586517333984,-0.018696188926696777,-0.008104592561721802
1769590528598595300,17.76859521484375,0.09842967987060547,-0.0159263014793396,-0.0011923015117645264
1769590528638555600,17.8085556640625,0.0625152587890625,-0.008296869695186615,0.001021355390548706
1769590528678509600,17.848509521484374,0.10321617126464844,-0.003531813621520996,-0.00610584020614624
1769590528718469000,17.88846923828125,0.0649118423461914,0.010836929082870483,-0.0014385879039764404
1769590528758423800,17.928423828125,0.09124946594238281,-0.010823436081409454,0.010529398918151855
1769590528798376700,17.968376708984376,0.07928752899169922,0.015400215983390808,0.0007102787494659424
1769590528838324200,18.00832421875,0.10083961486816406,-0.015844017267227173,0.01735013723373413
1769590528878273800,18.048273681640627,0.11281299591064453,0.024744883179664612,-0.016171753406524658
1769590528918226700,18.088226806640623,0.11281299591064453,-0.018343672156333923,0.005373060703277588
1769590528958179800,18.128179931640624,0.07929420471191406,-0.00397142767906189,-0.00420689582824707
1769590528998130700,18.168130615234375,0.10802268981933594,-0.015819504857063293,0.002999335527420044
1769590529038087700,18.208087646484376,0.05774879455566406,0.0008309036493301392,-0.009095907211303711
1769590529078044700,18.248044677734374,0.13675498962402344,-0.02540554851293564,0.005311518907546997
1769590529118006300,18.28800634765625,0.08648014068603516,-0.006325289607048035,0.00043317675590515137
1769590529157960200,18.327960205078124,0.0864877700805664,-0.01307707279920578,0.0023726224899291992
1769590529197915000,18.367914794921877,0.11521053314208984,-0.01991543173789978,-0.007092952728271484
1769590529237870800,18.407870849609374,0.06972789764404297,-0.007732398808002472,-0.0025878548622131348
1769590529277829400,18.447829345703123,0.09367561340332031,-0.00309675931930542,0.018804967403411865
1769590529317790700,18.487790771484374,0.09367656707763672,0.008525937795639038,-0.007416188716888428
1769590529357747700,18.527747802734375,0.100860595703125,-0.010508082807064056,-0.00035318732261657715
1769590529397701600,18.56770166015625,0.1080474853515625,-0.005712598562240601,-0.0028700828552246094
1769590529437651000,18.60765087890625,0.07452964782714844,-0.005748957395553589,-0.01483955979347229
1769590529477599000,18.647598876953126,0.11761665344238281,-0.0007424801588058472,-0.02903309464454651
1769590529517552400,18.687552490234374,0.08649253845214844,-0.029350802302360535,0.021169215440750122
1769590529557508900,18.7275087890625,0.0673360824584961,0.0019352361559867859,-0.024315088987350464
1769590529597465300,18.76746533203125,0.10324859619140625,-0.009749270975589752,-0.0004566609859466553
1769590529637495000,18.8074951171875,0.1032400131225586,-0.011999957263469696,-0.021755516529083252
1769590529677444900,18.84744482421875,0.10802936553955078,-0.011604666709899902,0.016354471445083618
1769590529717399600,18.887399658203126,0.0769033432006836,-0.006816364824771881,0.004395663738250732
1769590529757359600,18.927359619140624,0.11043548583984375,-0.004425697028636932,-0.0008697211742401123
1769590529797313800,18.967313720703125,0.07931327819824219,-0.00214405357837677,-0.005661129951477051
1769590529837271800,19.007271728515626,0.06734752655029297,0.004918947815895081,-0.00817495584487915
1769590529877229000,19.04722900390625,0.08889579772949219,-0.011844001710414886,0.008586019277572632
1769590529917193000,19.08719287109375,0.06735801696777344,0.0001305416226387024,-0.003745436668395996
1769590529957153300,19.1271533203125,0.09369659423828125,-0.007164575159549713,0.0034341514110565186
1769590529997118200,19.1671181640625,0.08891487121582031,0.014390327036380768,-0.008779168128967285
1769590530037073200,19.2070732421875,0.07454967498779297,-0.019117824733257294,0.02234092354774475
1769590530077030400,19.247030517578125,0.09848976135253906,0.0049437955021858215,-0.006389498710632324
1769590530116981200,19.286981201171876,0.05539989471435547,-0.011935293674468994,-0.004114747047424316
1769590530156922400,19.32692236328125,0.09850025177001953,-0.004789315164089203,-0.011446624994277954
1769590530196877300,19.366877197265627,0.09371662139892578,-0.018648512661457062,0.014527767896652222
1769590530236838400,19.40683837890625,0.055416107177734375,0.01224394142627716,-0.019113779067993164
1769590530276794600,19.446794677734374,0.12245845794677734,-0.009177066385746002,0.004586011171340942
1769590530316755500,19.48675537109375,0.0913228988647461,-0.004185877740383148,-0.014296233654022217
1769590530356709600,19.526709716796876,0.11047935485839844,-0.004088185727596283,-0.014423906803131104
1769590530396662500,19.56666259765625,0.08175373077392578,-0.006598412990570068,0.004608571529388428
1769590530436606700,19.606606689453123,0.09132766723632812,0.003274776041507721,-0.019356191158294678
1769590530476555800,19.6465556640625,0.09610843658447266,-0.03225625306367874,-0.014450877904891968
1769590530516505900,19.686505859375,0.0769491195678711,-0.015069156885147095,0.007105410099029541
1769590530556468700,19.72646875,0.1176462173461914,0.00417819619178772,-0.007164567708969116
1769590530596427800,19.766427734375,0.0745534896850586,-0.012508116662502289,-0.016859203577041626
1769590530636380400,19.80638037109375,0.09370708465576172,-0.005318433046340942,0.01426243782043457
1769590530676331300,19.846331298828126,0.08652877807617188,0.011565446853637695,-0.03143849968910217
1769590530716285700,19.88628564453125,0.08175086975097656,-0.03127041459083557,0.006412237882614136
1769590530756233200,19.926233154296874,0.11046886444091797,0.0046464502811431885,-0.02429908514022827
1769590530836132600,20.006132568359376,0.08891582489013672,-0.014163598418235779,-0.002722412347793579
1769590530876082700,20.046082763671876,0.12964439392089844,-0.004611149430274963,-0.0012306571006774902
1769590530916023000,20.08602294921875,0.08176612854003906,0.002567291259765625,-0.030164122581481934
1769590530955965200,20.125965087890624,0.0745687484741211,-0.0044979527592659,-0.020134955644607544
1769590530995897300,20.1658974609375,0.09132766723632812,-0.009284280240535736,0.006226629018783569
1769590531035843600,20.205843505859374,0.06260013580322266,0.019158020615577698,-0.022487521171569824
1769590531075783400,20.245783447265627,0.09131813049316406,-0.012005552649497986,-0.014878600835800171
1769590531115729200,20.285729248046874,0.0841360092163086,-0.007250197231769562,-0.0028762519359588623
1769590531155673900,20.325673828125,0.07695770263671875,0.002021975815296173,-0.01726391911506653
1769590531195616800,20.36561669921875,0.08174610137939453,0.004423089325428009,-0.012490570545196533
1769590531235542800,20.405542724609376,0.08176422119140625,-0.002854391932487488,-0.0035014450550079346
1769590531275478800,20.445478759765624,0.11768341064453125,-0.010092280805110931,-0.0012608468532562256
1769590531315416300,20.485416259765625,0.1009359359741211,-0.010113850235939026,-0.004042178392410278
1769590531355364000,20.525364013671876,0.10093116760253906,0.008956357836723328,-0.030210047960281372
1769590531395309800,20.565309814453126,0.0937509536743164,-0.014983326196670532,-0.0015283524990081787
1769590531435262200,20.60526220703125,0.06980705261230469,0.013611607253551483,-0.020576834678649902
1769590531475210000,20.6452099609375,0.1081085205078125,-0.024641983211040497,-0.0012520253658294678
1769590531515164000,20.685163818359374,0.09614181518554688,0.003972403705120087,0.005809485912322998
1769590531555118000,20.7251181640625,0.09375286102294922,-0.01523338258266449,0.0033128559589385986
1769590531595072000,20.765072021484375,0.10332965850830078,-0.017547838389873505,-0.006303519010543823
1769590531635027700,20.80502783203125,0.10573005676269531,0.0017388015985488892,-0.013782680034637451
1769590531674984400,20.844984375,0.07699394226074219,0.0019278228282928467,-0.01844760775566101
1769590531714934800,20.884934814453125,0.06502532958984375,0.0019568204879760742,-0.0017720162868499756
1769590531754861600,20.924861572265623,0.07458877563476562,-0.007523931562900543,-0.030105233192443848
1769590531794819000,20.964819091796876,0.10091686248779297,-0.012222036719322205,0.006026923656463623
1769590531834778600,21.004778564453126,0.08176612854003906,-0.00031291693449020386,-0.005987703800201416
1769590531874734300,21.044734375,0.09613418579101562,-0.0026533976197242737,-0.008513271808624268
1769590531914688500,21.0846884765625,0.08176326751708984,-0.019241511821746826,-0.0012230873107910156
1769590531954643000,21.124642822265624,0.10092544555664062,-0.00022855401039123535,-0.011016398668289185
1769590531994598100,21.16459814453125,0.0841665267944336,0.004476599395275116,-0.013374626636505127
1769590532034548000,21.2045478515625,0.10811710357666016,0.011539600789546967,0.007934033870697021
1769590532074504400,21.24450439453125,0.129669189453125,-0.002945221960544586,0.003026038408279419
1769590532114453000,21.284452880859376,0.07699394226074219,-0.0029415935277938843,-0.004038423299789429
1769590532154402000,21.324402099609376,0.11290359497070312,-0.012545853853225708,-0.013500630855560303
1769590532194347300,21.36434716796875,0.0698089599609375,0.0018750280141830444,-0.018336743116378784
1769590532234293800,21.404293701171873,0.09374332427978516,0.009045004844665527,-0.0037209391593933105
1769590532274237000,21.44423681640625,0.07219982147216797,-0.010228253901004791,0.010524660348892212
1769590532314167000,21.4841669921875,0.06263065338134766,-0.0006478875875473022,-0.006475359201431274
1769590532354093000,21.524093017578124,0.10093975067138672,-0.0007602646946907043,0.005492687225341797
1769590532394035000,21.564034912109374,0.09136199951171875,-0.020161256194114685,-0.023097962141036987
1769590532433976600,21.6039765625,0.09852886199951172,-0.010254055261611938,-0.015519410371780396
1769590532473920300,21.643920166015626,0.07697200775146484,-0.0005611404776573181,-0.010505825281143188
1769590532513866200,21.6838662109375,0.09852123260498047,-0.009862944483757019,-0.008251428604125977
1769590532553781200,21.72378125,0.08893394470214844,-0.00006458908319473267,-0.012793093919754028
1769590532593731300,21.7637314453125,0.11049652099609375,-0.0025190189480781555,-0.0013013780117034912
1769590532633683000,21.803682861328124,0.09134387969970703,-0.009589709341526031,-0.010936528444290161
1769590532673623600,21.84362353515625,0.10330963134765625,0.004928864538669586,-0.006020665168762207
1769590532713572400,21.883572265625,0.0841512680053711,-0.01664513349533081,-0.02501225471496582
1769590532753517600,21.923517578125,0.12244224548339844,-0.016428515315055847,-0.012615114450454712
1769590532793472300,21.96347216796875,0.07455730438232422,-0.004146456718444824,-0.00789615511894226
1769590532833426200,22.00342626953125,0.08413219451904297,-0.006277546286582947,-0.005561381578445435
1769590532873378800,22.04337890625,0.07933807373046875,-0.008416138589382172,-0.01266568899154663
1769590532913327400,22.083327392578123,0.08172798156738281,-0.015353843569755554,-0.012623310089111328
1769590532953274400,22.1232744140625,0.09607696533203125,0.013416260480880737,-0.0336509644985199
1769590532993224000,22.163223876953126,0.06733989715576172,-0.017728134989738464,-0.014254599809646606
1769590533033181700,22.203181640625,0.10086536407470703,-0.0034304335713386536,0.011888861656188965
1769590533073139000,22.243138916015624,0.09846878051757812,-0.017683595418930054,-0.009595602750778198
1769590533113090600,22.283090576171876,0.08888721466064453,-0.0009095147252082825,-0.01666635274887085
1769590533153039000,22.3230390625,0.11522102355957031,-0.03162617236375809,0.0024239718914031982
1769590533192991700,22.36299169921875,0.10325241088867188,0.0019479766488075256,0.009496062994003296
1769590533232944400,22.4029443359375,0.11043739318847656,-0.014539845287799835,-0.021853089332580566
1769590533272899800,22.44289990234375,0.09847259521484375,0.02125713974237442,0.0019678473472595215
1769590533312845300,22.48284521484375,0.10325241088867188,-0.005048416554927826,-0.02407848834991455
1769590533352739800,22.52273974609375,0.09606742858886719,0.002159222960472107,-0.01924312114715576
1769590533392669700,22.562669677734377,0.09606742858886719,0.0022828876972198486,-0.00014585256576538086
1769590533432608000,22.60260791015625,0.08170890808105469,-0.007529459893703461,-0.00026684999465942383
1769590533472552200,22.64255224609375,0.0817108154296875,0.009207658469676971,-0.017091721296310425
1769590533512501500,22.68250146484375,0.08649253845214844,-0.009753674268722534,-0.014561772346496582
1769590533552450000,22.722449951171875,0.100860595703125,-0.00034026801586151123,-0.024144500494003296
1769590533592401200,22.762401123046875,0.08886909484863281,-0.03812246024608612,-0.009318321943283081
1769590533632349700,22.802349609375,0.08886051177978516,-0.0019215717911720276,-0.01631990075111389
1769590533672304600,22.8423046875,0.10082530975341797,-0.00900028645992279,-0.0042039453983306885
1769590533712254000,22.88225390625,0.08405780792236328,-0.006516814231872559,-0.020709306001663208
1769590533752208600,22.922208740234375,0.11996269226074219,-0.018260009586811066,0.02015039324760437
1769590533792160500,22.962160400390626,0.0936422348022461,0.015265963971614838,0.0005154311656951904
1769590533832116700,23.00211669921875,0.1199808120727539,-0.0038769692182540894,0.005179882049560547
1769590533872066300,23.04206640625,0.11519432067871094,0.007974445819854736,-0.01636791229248047
1769590533912029400,23.082029541015626,0.07690048217773438,-0.006383635103702545,-0.007272511720657349
1769590533951987700,23.12198779296875,0.13676166534423828,0.010116934776306152,-0.01451614499092102
1769590533991945500,23.161945556640624,0.05057239532470703,-0.0019623637199401855,-0.012139230966567993
1769590534031897000,23.20189697265625,0.10324668884277344,0.0075873807072639465,-0.007436633110046387
1769590534071858000,23.24185791015625,0.06494426727294922,-0.0017466247081756592,-0.0028888285160064697
1769590534111805200,23.28180517578125,0.06493949890136719,-0.006609588861465454,-0.014667928218841553
1769590534151756500,23.321756591796873,0.1008462905883789,0.005483739078044891,-0.016918659210205078
1769590534191706000,23.3617060546875,0.07451057434082031,-0.016060516238212585,0.009416133165359497
1769590534231658800,23.40165869140625,0.09127521514892578,0.015043914318084717,-0.01711106300354004
1769590534271606800,23.441606689453124,0.09127521514892578,-0.011138036847114563,-0.005173087120056152
1769590534311555300,23.481555419921875,0.12001419067382812,0.007900193333625793,-0.005455374717712402
1769590534351511600,23.521511474609376,0.1008768081665039,0.0006051138043403625,-0.003542602062225342
1769590534391463200,23.561463134765624,0.11284351348876953,-0.008983932435512543,-0.029697924852371216
1769590534431408400,23.601408447265626,0.08411693572998047,0.0005118101835250854,0.0013424158096313477
1769590534471357400,23.641357421875,0.12481498718261719,-0.004033870995044708,0.0013408660888671875
1769590534511309000,23.68130908203125,0.10087299346923828,0.0031558945775032043,0.0037322044372558594
1769590534551267300,23.721267333984375,0.10087299346923828,-0.001625359058380127,0.003729313611984253
1769590534591215400,23.76121533203125,0.08172225952148438,0.0053116753697395325,-0.027396053075790405
1769590534631167200,23.801167236328126,0.10566425323486328,-0.004261508584022522,0.013303995132446289
1769590534671112000,23.84111181640625,0.07455921173095703,0.0030442476272583008,-0.01135718822479248
1769590534711060500,23.881060546875,0.09371089935302734,-0.013975970447063446,-0.01834946870803833
1769590534751003600,23.921003662109374,0.07934761047363281,0.005090720951557159,-0.011195927858352661
1769590534790951200,23.960951171875,0.09610652923583984,0.0002048984169960022,-0.004015594720840454
1769590534830897200,24.000897216796876,0.1296215057373047,0.009908482432365417,0.0008895397186279297
1769590534870849500,24.040849609375,0.08174896240234375,-0.009364716708660126,-0.004257678985595703
1769590534910795000,24.080794921875,0.10569572448730469,0.024189189076423645,-0.00679817795753479
1769590534950748200,24.120748046875,0.12006664276123047,-0.016392648220062256,-0.004643172025680542
1769590534990694700,24.160694580078125,0.09373092651367188,-0.001980125904083252,-0.01666116714477539
1769590535030593300,24.20059326171875,0.1128835678100586,0.005203284323215485,-0.009426712989807129
1769590535070520000,24.24052001953125,0.09134578704833984,-0.009393848478794098,0.004696518182754517
1769590535110457900,24.280457763671876,0.10332775115966797,-0.004594653844833374,-0.005243271589279175
1769590535150403800,24.32040380859375,0.11768913269042969,0.009781353175640106,-0.005127996206283569
1769590535190360300,24.3603603515625,0.10811233520507812,0.004843823611736298,-0.024221181869506836
1769590535230307000,24.40030712890625,0.0961465835571289,-0.007329836487770081,-0.0027722716331481934
1769590535270256400,24.44025634765625,0.06981372833251953,0.01178685575723648,-0.0052574872970581055
1769590535310198800,24.48019873046875,0.1129140853881836,-0.012206315994262695,-0.01497805118560791
1769590535350153700,24.52015380859375,0.09855270385742188,0.016534917056560516,0.00405159592628479
1769590535390101800,24.560101806640624,0.1009511947631836,-0.014705732464790344,0.006324738264083862
1769590535430049300,24.60004931640625,0.08898735046386719,0.006610117852687836,-0.015345633029937744
1769590535469995300,24.639995361328126,0.10573768615722656,-0.019698187708854675,-0.00788840651512146
1769590535509940200,24.679940185546876,0.10094928741455078,0.001849628984928131,0.001688450574874878
1769590535549890600,24.719890625,0.10814189910888672,-0.007839575409889221,0.006234705448150635
1769590535589839400,24.75983935546875,0.0698404312133789,0.006286449730396271,-0.015432685613632202
1769590535629782000,24.799781982421877,0.07463836669921875,0.0016284435987472534,-0.006219148635864258
1769590535669729500,24.8397294921875,0.09617805480957031,-0.019517190754413605,-0.013309687376022339
1769590535709680000,24.87968017578125,0.07463455200195312,0.013880953192710876,-0.008616447448730469
1769590535749609700,24.919609619140626,0.06984615325927734,-0.012596800923347473,-0.010929077863693237
1769590535789570000,24.959570068359376,0.06985282897949219,0.013739407062530518,0.0008029341697692871
1769590535829532200,24.9995322265625,0.09380531311035156,-0.0008650496602058411,-0.004224717617034912
1769590535869485600,25.039485595703123,0.07704925537109375,0.02537616342306137,0.002874910831451416
1769590535909447000,25.079447021484373,0.07705307006835938,-0.015325278043746948,0.005149483680725098
1769590535949407000,25.119406982421875,0.08904743194580078,0.0061064958572387695,-0.002752453088760376
1769590535989361000,25.15936083984375,0.09383869171142578,-0.0034666135907173157,-0.000479280948638916
1769590536029315300,25.1993154296875,0.10819149017333984,-0.024727344512939453,-0.007335096597671509
1769590536069266400,25.239266357421876,0.06987476348876953,-0.012552574276924133,-0.004718214273452759
1769590536109222000,25.279221923828125,0.09380531311035156,0.013936743140220642,-0.025976896286010742
1769590536149169700,25.319169677734376,0.0985879898071289,-0.005378350615501404,-0.01131489872932434
1769590536189115400,25.359115478515626,0.09139442443847656,0.004101306200027466,-0.025292158126831055
1769590536229061000,25.39906103515625,0.09618949890136719,-0.01041480153799057,-0.0015141665935516357
1769590536269005300,25.43900537109375,0.0746469497680664,0.008618190884590149,-0.011197388172149658
1769590536308951300,25.478951416015626,0.1105508804321289,-0.00580170750617981,-0.01806849241256714
1769590536348898300,25.518898193359377,0.0746307373046875,-0.025039292871952057,-0.005839288234710693
1769590536388848000,25.55884814453125,0.09377670288085938,0.015679694712162018,-0.00558847188949585
1769590536428799500,25.598799560546876,0.11770343780517578,0.0013296231627464294,-0.019451260566711426
1769590536468747000,25.6387470703125,0.08657169342041016,-0.003411300480365753,-0.016847670078277588
1769590536508688100,25.678688232421877,0.12009143829345703,-0.005847319960594177,-0.0049059391021728516
1769590536548638000,25.718637939453124,0.09134387969970703,-0.0055895522236824036,-0.03317520022392273
1769590536588579000,25.7585791015625,0.08416366577148438,-0.007859937846660614,-0.0021424293518066406
1769590536628524500,25.798524658203124,0.11527729034423828,0.004047401249408722,-0.011342376470565796
1769590536668468000,25.838468017578126,0.06499481201171875,-0.010309427976608276,-0.011198759078979492
1769590536708396800,25.878396728515625,0.13202476501464844,-0.0076933205127716064,-0.003862529993057251
1769590536748318200,25.918318115234374,0.06258678436279297,-0.0075546205043792725,-0.018089473247528076
1769590536788258300,25.95825830078125,0.0984945297241211,-0.012384682893753052,-0.0035208463668823242
1769590536828200200,25.9982001953125,0.08892059326171875,-0.007693968713283539,0.005998849868774414
1769590536868141600,26.0381416015625,0.08174514770507812,-0.005193717777729034,-0.00624769926071167
1769590536908083700,26.078083740234376,0.08654308319091797,0.006541691720485687,-0.001699894666671753
1769590536948033500,26.118033447265624,0.0865468978881836,-0.012767910957336426,-0.006536304950714111
1769590536987976200,26.15797607421875,0.09374618530273438,-0.0033070817589759827,-0.0022277235984802246
1769590537027929300,26.197929443359374,0.10332584381103516,0.0014921054244041443,0.007225066423416138
1769590537067875300,26.237875244140625,0.09613990783691406,0.02307858318090439,-0.01422572135925293
1769590537107832600,26.27783251953125,0.11529350280761719,0.01328558474779129,0.002588927745819092
1769590537147782400,26.317782470703126,0.08177852630615234,-0.005860812962055206,0.0048604607582092285
1769590537187739400,26.357739501953127,0.08896446228027344,0.018064163625240326,-0.02152484655380249
1769590537227692300,26.3976923828125,0.08418941497802734,0.005870118737220764,-0.012336254119873047
1769590537267642000,26.43764208984375,0.08897209167480469,-0.00373956561088562,-0.02167627215385437
1769590537307594200,26.47759423828125,0.07460975646972656,0.0010596215724945068,0.009324342012405396
1769590537347546400,26.51754638671875,0.10573291778564453,-0.0038212239742279053,-0.019327998161315918
1769590537387498800,26.557498779296875,0.10811996459960938,-0.0036754459142684937,-0.002373993396759033
1769590537427450400,26.597450439453127,0.098541259765625,-0.008492827415466309,-0.014272123575210571
1769590537467394300,26.637394287109377,0.0961456298828125,-0.0015458017587661743,0.00021123886108398438
1769590537507336000,26.6773359375,0.10332870483398438,0.005643919110298157,0.00020828843116760254
1769590537547280000,26.71727978515625,0.10093879699707031,-0.003773920238018036,-0.01437637209892273
1769590537587225000,26.75722509765625,0.10573482513427734,0.0010216832160949707,0.009323596954345703
1769590537627171300,26.79717138671875,0.12728309631347656,-0.00856231153011322,-0.009827077388763428
1769590537667126800,26.837126708984375,0.1033315658569336,0.0009644031524658203,-0.02625289559364319
1769590537707080200,26.877080078125,0.09613227844238281,0.008260652422904968,0.0005443394184112549
1769590537747034000,26.9170341796875,0.08656501770019531,0.005754008889198303,-0.002092033624649048
1769590537786968300,26.95696826171875,0.10093116760253906,0.003243856132030487,0.01466590166091919
1769590537826906600,26.99690673828125,0.0913553237915039,-0.008484460413455963,0.004968047142028809
1769590537866857000,27.03685693359375,0.09614944458007812,-0.0011750981211662292,0.01190844178199768
1769590537906811400,27.076811279296876,0.10333538055419922,-0.01577230542898178,-0.012036561965942383
1769590537946759200,27.11675927734375,0.06023597717285156,-0.010895490646362305,0.01200401782989502
1769590537986709000,27.156708984375,0.09615421295166016,0.003353707492351532,-0.014453381299972534
1769590538026657300,27.1966572265625,0.09376335144042969,0.0007239282131195068,-0.007272154092788696
1769590538066601700,27.236601806640625,0.09137153625488281,0.015092693269252777,-0.0026047825813293457
1769590538106551000,27.276551025390624,0.10574054718017578,0.0007346421480178833,-0.0003331899642944336
1769590538146503200,27.316503173828124,0.09137630462646484,0.009959869086742401,0.00696602463722229
1769590538186448000,27.35644775390625,0.09856986999511719,0.0025032684206962585,-0.01959139108657837
1769590538226398500,27.3963984375,0.09139537811279297,-0.00934455543756485,0.0063845813274383545
1769590538266340000,27.436340087890624,0.07703399658203125,0.002630002796649933,-0.003313302993774414
1769590538306292500,27.47629248046875,0.09140872955322266,0.004792265594005585,-0.0035554170608520508
1769590538346241000,27.516240966796875,0.05788230895996094,-0.0047624558210372925,-0.017658233642578125
1769590538386186800,27.556186767578126,0.11534404754638672,-0.004941932857036591,-0.008023709058761597
1769590538426135600,27.596135498046873,0.09618377685546875,-0.011974893510341644,-0.012678682804107666
1769590538466081800,27.636081787109376,0.0770273208618164,0.01897463947534561,-0.014921247959136963
1769590538506027300,27.67602734375,0.11772727966308594,-0.004833832383155823,-0.0029256045818328857
1769590538545980700,27.715980712890627,0.0746316909790039,-0.0022875815629959106,-0.012559890747070312
1769590538585922000,27.755922119140624,0.09618568420410156,-0.00011114776134490967,-0.0031184256076812744
1769590538625867000,27.795866943359375,0.08660697937011719,-0.004772752523422241,0.006455451250076294
1769590538665808000,27.835807861328124,0.06984138488769531,-0.01664545387029648,-0.00772327184677124
1769590538705751600,27.87575146484375,0.11773109436035156,0.0047828033566474915,0.006522387266159058
1769590538745695200,27.9156953125,0.06745243072509766,0.009440913796424866,-0.02455344796180725
1769590538785645300,27.955645263671876,0.08421611785888672,-0.00970546156167984,0.0040544867515563965
1769590538825601500,27.9956015625,0.05788421630859375,0.002291478216648102,-0.0176716148853302
1769590538865545200,28.035545166015623,0.11294078826904297,-0.0024389326572418213,-0.019725769758224487
1769590538905483500,28.0754833984375,0.0961761474609375,0.000103779137134552,-0.010057598352432251
1769590538945435100,28.11543505859375,0.06504440307617188,-0.02395220845937729,-0.012155681848526001
1769590538985386000,28.155385986328124,0.12011241912841797,0.007251232862472534,-0.009880781173706055
1769590539025346800,28.195346923828126,0.09616279602050781,-0.02123820036649704,-0.012108385562896729
1769590539065302000,28.235302001953126,0.0722208023071289,0.014583468437194824,-0.02163568139076233
1769590539105256700,28.275256591796875,0.10811805725097656,-0.018495336174964905,-0.011710882186889648
1769590539145201400,28.315201416015626,0.08897209167480469,0.0054502785205841064,0.004807800054550171
1769590539185150500,28.355150390625,0.11770439147949219,0.0005668774247169495,-0.01198318600654602
1769590539225100000,28.39510009765625,0.07940387725830078,-0.00900992751121521,0.0021428465843200684
1769590539265052200,28.43505224609375,0.08898544311523438,-0.00398235023021698,-0.0004906356334686279
1769590539304993300,28.4749931640625,0.0818023681640625,0.003203853964805603,-0.005280524492263794
1769590539344941600,28.514941650390625,0.08898544311523438,0.0007174089550971985,-0.019610852003097534
1769590539384884200,28.55488427734375,0.1153097152709961,-0.008744552731513977,-0.016891896724700928
1769590539424833800,28.594833740234375,0.08896446228027344,0.010387830436229706,-0.02372920513153076
1769590539464781300,28.63478125,0.07459831237792969,-0.006576605141162872,0.0051152706146240234
1769590539504746200,28.674746337890625,0.09853649139404297,0.0030113160610198975,-0.009144783020019531
1769590539544707300,28.714707275390627,0.09134769439697266,-0.011274591088294983,-0.011369496583938599
1769590539584665300,28.754665283203124,0.08655452728271484,0.014788828790187836,-0.020672321319580078
1769590539624617500,28.794617431640624,0.06978225708007812,-0.016116291284561157,-0.008351236581802368
1769590539664574200,28.83457421875,0.09372520446777344,0.02673611044883728,-0.005879014730453491
1769590539704510700,28.8745107421875,0.11048698425292969,-0.00916723906993866,-0.008368998765945435
1769590539744431400,28.914431396484375,0.08654499053955078,-0.0020791441202163696,-0.005950599908828735
1769590539784379100,28.954379150390626,0.11527729034423828,-0.006700344383716583,-0.010854512453079224
1769590539824325600,28.99432568359375,0.09611988067626953,-0.023208603262901306,-0.010852277278900146
1769590539864272400,29.0342724609375,0.09612560272216797,0.0032543689012527466,0.005664914846420288
1769590539904222000,29.074221923828127,0.1033010482788086,-0.008338071405887604,-0.018170088529586792
1769590539944150300,29.114150390625,0.06499385833740234,-0.01060342788696289,0.0033517777919769287
1769590539984085000,29.1540849609375,0.07695865631103516,-0.015277482569217682,-0.01807999610900879
1769590540024026000,29.194026123046875,0.10568714141845703,0.0039962828159332275,-0.013262450695037842
1769590540063973400,29.233973388671874,0.06019306182861328,-0.003331705927848816,-0.0058904290199279785
1769590540103915500,29.27391552734375,0.09850120544433594,-0.0033751949667930603,-0.017874032258987427
1769590540143867000,29.313866943359375,0.057793617248535156,-0.02008085697889328,-0.020083636045455933
1769590540183808000,29.35380810546875,0.10808086395263672,0.010927721858024597,0.013194531202316284
1769590540223755300,29.39375537109375,0.07218170166015625,-0.013253428041934967,0.010441631078720093
1769590540263706000,29.4337060546875,0.08655643463134766,-0.003905080258846283,0.005409568548202515
1769590540303658500,29.473658447265624,0.10092830657958984,0.0032811015844345093,-0.0068021416664123535
1769590540343602400,29.5136025390625,0.10092830657958984,-0.004072532057762146,-0.02349400520324707
1769590540383545300,29.55354541015625,0.12247943878173828,0.00528138130903244,-0.013921171426773071
1769590540423490800,29.59349072265625,0.1009368896484375,-0.006615959107875824,-0.014119565486907959
1769590540463438300,29.633438232421874,0.0698099136352539,0.015000961720943451,-0.006879299879074097
1769590540503379000,29.67337890625,0.11290454864501953,-0.013775266706943512,-0.004419833421707153
1769590540543326000,29.713325927734374,0.048259735107421875,0.005266129970550537,-0.013931870460510254
1769590540583273200,29.753273193359377,0.1152963638305664,-0.01615653932094574,-0.01155620813369751
1769590540623221000,29.793220947265624,0.07459354400634766,-0.01578593999147415,-0.009244471788406372
1769590540663180800,29.833180908203126,0.12247276306152344,-0.008650057017803192,-0.0018969476222991943
1769590540703132200,29.873132080078125,0.0913543701171875,0.01755538582801819,-0.014040768146514893
1769590540743081500,29.91308154296875,0.07938385009765625,0.012712769210338593,-0.00923001766204834
1769590540783028500,29.953028564453124,0.10810375213623047,-0.006553292274475098,-0.02559041976928711
1769590540822969300,29.99296923828125,0.10089969635009766,-0.030093461275100708,-0.017842859029769897
1769590540862915000,30.0329150390625,0.1008920669555664,0.010821104049682617,-0.02250608801841736
1769590540902854100,30.072854248046873,0.11764812469482422,0.0011660978198051453,-0.003171950578689575
1769590540942795500,30.11279541015625,0.07454776763916016,0.005941055715084076,-0.017351359128952026
1769590540982734600,30.152734619140624,0.11285018920898438,0.003410913050174713,-0.0028032660484313965
1769590541022674000,30.192673828125,0.07454872131347656,0.02239333838224411,-0.010127007961273193
1769590541062620700,30.23262060546875,0.07694053649902344,0.005660094320774078,0.0019330382347106934
1769590541102573000,30.272572998046876,0.10088634490966797,0.0008716955780982971,-0.0005807578563690186
1769590541142520300,30.312520263671875,0.06975650787353516,-0.0016555637121200562,-0.02428838610649109
1769590541182454500,30.35245458984375,0.0913095474243164,0.0008652657270431519,-0.0005884468555450439
1769590541222397200,30.392397216796876,0.053005218505859375,0.005758211016654968,-0.012688010931015015
1769590541262349800,30.432349853515625,0.11285972595214844,0.019882798194885254,-0.005367636680603027
1769590541302304500,30.472304443359373,0.06976032257080078,0.0029159188270568848,-0.014743566513061523
1769590541342262500,30.512262451171875,0.10806751251220703,-0.004263095557689667,0.002014458179473877
1769590541382223400,30.552223388671877,0.0841217041015625,0.003029666841030121,-0.012259870767593384
1769590541422188300,30.592188232421876,0.12243080139160156,-0.008814573287963867,0.01395377516746521
1769590541462140700,30.632140625,0.08891105651855469,-0.0017079859972000122,-0.026700496673583984
1769590541502092300,30.67209228515625,0.10566425323486328,-0.020514339208602905,-0.01465761661529541
1769590541542048300,30.71204833984375,0.06017875671386719,0.012905001640319824,-0.0003883242607116699
1769590541581999400,30.751999267578125,0.07933330535888672,-0.011069059371948242,-0.005177885293960571
1769590541621951200,30.791951171875,0.09369373321533203,-0.0014398172497749329,-0.0074787437915802
1769590541661906200,30.83190625,0.06736469268798828,0.003352142870426178,-0.005325198173522949
1769590541701860900,30.87186083984375,0.07933425903320312,0.005501501262187958,-0.014747083187103271
1769590541741814000,30.91181396484375,0.08652305603027344,0.005593709647655487,-0.005390465259552002
1769590541781756700,30.951756591796876,0.11285972595214844,-0.0015852749347686768,0.004184931516647339
1769590541821709000,30.991708984375,0.11526107788085938,0.0030835792422294617,-0.010419398546218872
1769590541861654000,31.031654052734375,0.08893013000488281,-0.0182250514626503,0.006100773811340332
1769590541901611800,31.07161181640625,0.10329532623291016,0.010513067245483398,-0.017856299877166748
1769590541941567200,31.111567138671877,0.06738567352294922,-0.015743806958198547,-0.0012609362602233887
1769590541981518300,31.151518310546876,0.09851646423339844,0.0035330280661582947,0.003286808729171753
1769590542021470500,31.191470458984377,0.055426597595214844,-0.0013375505805015564,-0.01600867509841919
1769590542061427000,31.231427001953126,0.07936477661132812,-0.003914743661880493,-0.015819519758224487
1769590542101383200,31.271383056640627,0.09851646423339844,-0.013439074158668518,-0.013378679752349854
1769590542141336300,31.31133642578125,0.08893966674804688,-0.0038939937949180603,0.0009699165821075439
1769590542181280800,31.35128076171875,0.11287403106689453,-0.006023399531841278,-0.02039852738380432
1769590542221176600,31.391176513671876,0.08414554595947266,0.006070412695407867,0.0034227967262268066
1769590542261108200,31.431108154296876,0.11767005920410156,-0.005839675664901733,-0.0063950419425964355
1769590542301048300,31.47104833984375,0.06500816345214844,-0.006068050861358643,0.002938210964202881
1769590542341002000,31.511001953125,0.11528301239013672,0.010792076587677002,-0.0257398784160614
1769590542380955100,31.550955078125,0.10091972351074219,-0.01046685129404068,0.0028454065322875977
1769590542420907300,31.5909072265625,0.06979560852050781,0.0014186650514602661,-0.011512041091918945
1769590542460859100,31.630859130859374,0.09852123260498047,-0.008071407675743103,-0.016181260347366333
1769590542500800300,31.67080029296875,0.0626068115234375,0.003815591335296631,-0.01850089430809021
1769590542540708000,31.7107080078125,0.0817708969116211,0.0035802051424980164,0.01956591010093689
1769590542580648400,31.7506484375,0.07219696044921875,-0.013175606727600098,-0.004497140645980835
1769590542620591400,31.79059130859375,0.0841665267944336,-0.02237701416015625,-0.009381324052810669
1769590542660529700,31.83052978515625,0.06740474700927734,-0.012778997421264648,-0.009322583675384521
1769590542700475600,31.8704755859375,0.10331916809082031,-0.010275252163410187,-0.007000386714935303
1769590542740417300,31.910417236328126,0.09135055541992188,0.004209548234939575,0.009639531373977661
1769590542780362000,31.950362060546876,0.11768436431884766,0.009119436144828796,-0.02623620629310608
1769590542820299300,31.99029931640625,0.0817708969116211,-0.019679099321365356,-0.009461075067520142
1769590542860247300,32.03024731445313,0.11049652099609375,0.011348538100719452,-0.02599772810935974
1769590542900184800,32.07018481445313,0.09851360321044922,-0.019449308514595032,-0.011366307735443115
1769590542940125700,32.11012573242188,0.11048316955566406,0.0046694353222846985,-0.0018532276153564453
1769590542980061700,32.15006176757812,0.11047935485839844,-0.0023350194096565247,-0.013742595911026001
1769590543020002600,32.19000244140625,0.08414745330810547,-0.01668720692396164,0.005264312028884888
1769590543059936500,32.2299365234375,0.11287689208984375,0.021743200719356537,0.0004744529724121094
1769590543099867600,32.26986767578125,0.09851360321044922,0.009472236037254333,-0.018643587827682495
1769590543139803000,32.30980297851563,0.0530242919921875,0.011689528822898865,0.0029536783695220947
1769590543179742700,32.34974267578125,0.07218456268310547,-0.010093867778778076,-0.004350036382675171
1769590543219683600,32.38968359375,0.09613513946533203,-0.000629425048828125,-0.009380459785461426
1769590543259630800,32.429630859375,0.09854316711425781,0.011102445423603058,0.0022318363189697266
1769590543299575000,32.46957495117187,0.12727928161621094,-0.0033767297863960266,-0.01226872205734253
1769590543339508000,32.50950805664063,0.07699966430664062,-0.010680422186851501,-0.028948724269866943
1769590543379447800,32.54944775390625,0.11291980743408203,0.010628245770931244,0.006844699382781982
1769590543419390000,32.589389892578126,0.0913705825805664,-0.003709442913532257,-0.019466280937194824
1769590543459333400,32.62933349609375,0.11052799224853516,0.013111397624015808,-0.0028840601444244385
1769590543499274000,32.66927392578125,0.09856319427490234,-0.001126989722251892,-0.0031260251998901367
1769590543539213300,32.70921337890625,0.09139060974121094,-0.017879202961921692,0.0036948323249816895
1769590543579149600,32.74914965820312,0.09378528594970703,0.006331540644168854,-0.017922401428222656
1769590543619084000,32.789083984375,0.06984710693359375,-0.010417051613330841,0.0011073052883148193
1769590543659026200,32.82902612304687,0.07224178314208984,-0.00805770605802536,-0.00610959529876709
1769590543698963000,32.868962890625,0.07703399658203125,-0.003073975443840027,-0.01589101552963257
1769590543738874400,32.90887426757813,0.10097885131835938,0.003873087465763092,0.0032610297203063965
1769590543778809600,32.9488095703125,0.07942962646484375,-0.012998640537261963,0.0009834766387939453
1769590543818751500,32.98875146484375,0.08661174774169922,-0.0010240226984024048,-0.010989010334014893
1769590543858692400,33.0286923828125,0.06505107879638672,-0.015309803187847137,-0.020166724920272827
1769590543898636500,33.06863647460938,0.10573959350585938,-0.01039489358663559,-0.017390847206115723
1769590543938576100,33.108576171875,0.09853935241699219,-0.012591943144798279,-0.019303619861602783
1769590543978519600,33.14851953125,0.10332775115966797,0.028025202453136444,-0.012052446603775024
1769590544018465500,33.18846557617187,0.08177661895751953,0.006400644779205322,-0.009538471698760986
1769590544058407400,33.228407470703125,0.12247562408447266,0.008557505905628204,-0.021334201097488403
1769590544098349600,33.268349609375,0.07219696044921875,-0.003432251513004303,-0.00935104489326477
1769590544138291200,33.308291259765625,0.09135627746582031,-0.010727256536483765,0.0048916637897491455
1769590544178231000,33.34823095703125,0.08417606353759766,0.008070051670074463,-0.018973112106323242
1769590544218177800,33.388177734375,0.07938385009765625,0.010418780148029327,-0.002094775438308716
1769590544258121700,33.428121826171875,0.10332584381103516,-0.011364609003067017,0.005206018686294556
1769590544298066400,33.46806640625,0.06502246856689453,-0.006333477795124054,0.00017690658569335938
1769590544338006300,33.50800634765625,0.07460975646972656,-0.0065690502524375916,-0.00964057445526123
1769590544377951000,33.54795092773438,0.1320791244506836,0.0005011335015296936,0.009270966053009033
1769590544417882000,33.587882080078124,0.10814189910888672,0.0007438510656356812,0.001847773790359497
1769590544457826300,33.62782641601562,0.09139347076416016,-0.004156924784183502,-0.01527339220046997
1769590544497774000,33.66777416992188,0.09618186950683594,-0.01848873496055603,-0.008077293634414673
1769590544537732900,33.70773291015625,0.06984806060791016,0.007774710655212402,-0.017714500427246094
1769590544577684200,33.74768432617188,0.11055374145507812,-0.021152906119823456,0.008577316999435425
1769590544617639400,33.787639404296876,0.08899307250976562,-0.00407746434211731,-0.031834155321121216
1769590544657588000,33.827587890625,0.12251091003417969,0.00544227659702301,-0.012610286474227905
1769590544697544700,33.86754467773437,0.07460784912109375,-0.013521499931812286,-0.01686587929725647
1769590544737500200,33.90750024414063,0.11051464080810547,0.0058145672082901,-0.021527379751205444
1769590544777460700,33.947460693359375,0.08417129516601562,-0.0011977627873420715,-0.009361207485198975
1769590544817419500,33.98741943359375,0.07220935821533203,-0.0038240551948547363,0.009550154209136963
1769590544857387800,34.0273876953125,0.08656120300292969,0.022089287638664246,-0.042488694190979004
1769590544897361000,34.06736083984375,0.10571956634521484,0.005456708371639252,0.024306684732437134
1769590544937325000,34.107324951171876,0.08416938781738281,-0.0017222538590431213,0.00048279762268066406
1769590544977280300,34.1472802734375,0.09614276885986328,-0.008858300745487213,-0.018771380186080933
1769590545017241300,34.18724145507812,0.0722036361694336,-0.011480972170829773,0.01474297046661377
1769590545057204200,34.22720434570312,0.10811710357666016,-0.0019041448831558228,0.005166143178939819
1769590545097175000,34.26717504882812,0.03868579864501953,0.00791553407907486,-0.016502797603607178
1769590545137133300,34.30713330078125,0.11290931701660156,-0.016026481986045837,0.021684736013412476
1769590545177090300,34.34709033203125,0.050658226013183594,-0.023179687559604645,-0.023760318756103516
1769590545217047000,34.387047119140625,0.11530876159667969,0.01754743605852127,-0.01681804656982422
1769590545257008000,34.427008056640624,0.0817880630493164,-0.032607823610305786,-0.0024593472480773926
1769590545296963800,34.4669638671875,0.06982135772705078,0.017670445144176483,-0.004973232746124268
1769590545336921000,34.50692114257812,0.08658885955810547,-0.011168792843818665,0.006754130125045776
1769590545376881200,34.546881103515624,0.1057443618774414,0.017684876918792725,0.009027212858200073
1769590545416843800,34.58684375,0.0865945816040039,-0.03462053835391998,0.020730048418045044
1769590545456792300,34.62679223632812,0.10336494445800781,0.02979089319705963,-0.01781943440437317
1769590545496748300,34.66674829101562,0.11533069610595703,-0.015630900859832764,-0.012916594743728638
1769590545536706800,34.706706787109376,0.10815238952636719,0.015500955283641815,-0.0010680854320526123
1769590545576665900,34.74666577148437,0.09378719329833984,-0.001258455216884613,0.00850871205329895
1769590545616618200,34.7866181640625,0.0937957763671875,0.008205898106098175,-0.0037045180797576904
1769590545656574200,34.82657421875,0.1105508804321289,-0.003872424364089966,-0.020268738269805908
1769590545696525300,34.866525390625,0.07464122772216797,-0.013720251619815826,-0.00350990891456604
1769590545736467200,34.90646728515625,0.1105489730834961,-0.02777601033449173,-0.0011014342308044434
1769590545776410600,34.94641064453125,0.07703781127929688,-0.013363346457481384,-0.0013500750064849854
1769590545816358400,34.9863583984375,0.09378623962402344,0.005807437002658844,-0.029732167720794678
1769590545856299500,35.026299560546875,0.11771678924560547,-0.017717301845550537,-0.015167772769927979
1769590545896240400,35.066240478515624,0.07223129272460938,0.00856112688779831,-0.010479241609573364
1769590545936180700,35.1061806640625,0.105743408203125,-0.017683014273643494,-0.010306239128112793
1769590545976131000,35.14613110351563,0.09136486053466797,0.0037654340267181396,-0.036161839962005615
1769590546016081700,35.18608154296875,0.0913543701171875,-0.022322572767734528,0.007162123918533325
1769590546056034600,35.22603466796875,0.10572528839111328,0.00868602842092514,0.007041037082672119
1769590546095981600,35.26598168945313,0.07700347900390625,-0.01297777146100998,0.006800442934036255
1769590546135934000,35.30593383789063,0.10334205627441406,0.006299033761024475,-0.017262667417526245
1769590546175879700,35.345879638671875,0.0841970443725586,-0.01536484807729721,0.01122710108757019
1769590546215831800,35.385831787109375,0.09617137908935547,-0.0012352392077445984,-0.005533844232559204
1769590546255778000,35.42577807617187,0.11531448364257812,0.008591532707214355,-0.02208450436592102
1769590546295727900,35.46572778320313,0.09854984283447266,-0.00810510665178299,-0.009925216436386108
1769590546335678000,35.50567797851563,0.09136295318603516,-0.007974237203598022,-0.017040938138961792
1769590546375633700,35.54563354492188,0.11528301239013672,-0.012467995285987854,-0.030804097652435303
1769590546415585000,35.5855849609375,0.06261730194091797,0.008874498307704926,-0.0021966397762298584
1769590546455535900,35.62553588867188,0.045859336853027344,-0.010202519595623016,-0.007058203220367432
1769590546495483400,35.6654833984375,0.08177566528320312,-0.005313202738761902,-0.0072321295738220215
1769590546535431200,35.70543115234375,0.1296558380126953,0.006425812840461731,0.009763538837432861
1769590546575371800,35.745371826171876,0.067413330078125,0.018300049006938934,-0.016776323318481445
1769590546615318800,35.78531884765625,0.07938671112060547,-0.022513791918754578,0.009556978940963745
1769590546655263200,35.82526318359375,0.09135818481445312,0.010896250605583191,-0.009601116180419922
1769590546695215600,35.86521557617188,0.06981277465820312,-0.01316535472869873,-0.004812717437744141
1769590546735163400,35.905163330078125,0.1320667266845703,0.015807904303073883,0.006917506456375122
1769590546775117300,35.945117431640625,0.11053085327148438,-0.012802928686141968,-0.005531907081604004
1769590546815065900,35.98506591796875,0.08659076690673828,-0.01267974078655243,-0.012812525033950806
1769590546855010300,36.02501025390625,0.09856986999511719,-0.0005005300045013428,-0.020342528820037842
1769590546894951400,36.064951416015624,0.0937814712524414,-0.0005005300045013428,0.003599494695663452
1769590546934907600,36.10490771484375,0.08419990539550781,0.013788208365440369,-0.02972424030303955
1769590546974865400,36.14486547851563,0.09855365753173828,0.0019011273980140686,-0.01263687014579773
1769590547014824200,36.18482421875,0.07460594177246094,0.011376850306987762,-0.007602483034133911
1769590547054777900,36.22477783203125,0.04587078094482422,-0.022051312029361725,-0.0026852190494537354
1769590547094736000,36.26473583984375,0.07939624786376953,0.01386173814535141,0.001864016056060791
1769590547134684400,36.30468432617187,0.10334587097167969,-0.02204769104719162,0.004017531871795654
1769590547174630400,36.34463037109375,0.07700347900390625,-0.016983941197395325,-0.02703985571861267
1769590547214574300,36.38457421875,0.08657169342041016,-0.019028998911380768,-0.007735073566436768
1769590547254520800,36.424520751953125,0.12008476257324219,0.0050503164529800415,-0.012413829565048218
1769590547294466600,36.46446655273437,0.108123779296875,-0.006797492504119873,0.013562202453613281
1769590547334414300,36.504414306640626,0.08179187774658203,-0.0071526020765304565,-0.005592823028564453
1769590547374365700,36.54436572265625,0.096160888671875,-0.01659262180328369,0.003773212432861328
1769590547414314000,36.58431396484375,0.08418941497802734,-0.0020378679037094116,-0.03212994337081909
1769590547454260000,36.62426000976563,0.12010002136230469,-0.0022043809294700623,0.0015000998973846436
1769590547494208800,36.66420874023437,0.07462406158447266,-0.00003851950168609619,0.013107985258102417
1769590547534152700,36.704152587890626,0.1153268814086914,-0.0072851479053497314,-0.01566678285598755
1769590547574097000,36.744096923828124,0.11052608489990234,-0.007323533296585083,-0.03436729311943054
1769590547614036700,36.78403662109375,0.09854412078857422,0.0023347660899162292,-0.007712334394454956
1769590547653982000,36.82398193359375,0.08896255493164062,0.009363368153572083,-0.02664157748222351
1769590547693930500,36.86393041992188,0.098541259765625,0.002154730260372162,-0.01234319806098938
1769590547733851400,36.90385131835937,0.11530780792236328,-0.002729088068008423,-0.010126352310180664
1769590547773797000,36.943797119140626,0.0793771743774414,-0.009516172111034393,-0.0360359251499176
1769590547813742800,36.98374291992187,0.08894157409667969,-0.0045984238386154175,-0.009356945753097534
1769590547853683500,37.02368334960938,0.12484931945800781,0.004896409809589386,-0.01634618639945984
1769590547893628200,37.06362817382813,0.10329627990722656,-0.00721365213394165,-0.013688772916793823
1769590547933574700,37.10357470703125,0.10808658599853516,0.023694433271884918,0.005482673645019531
1769590547973525000,37.14352490234375,0.09851741790771484,-0.01461278647184372,0.007637679576873779
1769590548013467400,37.18346728515625,0.09134101867675781,-0.005028806626796722,-0.009363830089569092
1769590548053418000,37.22341796875,0.11049365997314453,-0.012250080704689026,0.0002624988555908203
1769590548093364000,37.263364013671875,0.057824134826660156,0.006808057427406311,-0.014147579669952393
1769590548133313800,37.30331372070312,0.08895015716552734,-0.005213543772697449,-0.016566753387451172
1769590548173245000,37.34324487304688,0.08416461944580078,0.006884194910526276,0.0024644136428833008
1769590548213177900,37.383177734375,0.08655261993408203,0.002206280827522278,-0.021346718072891235
1769590548253120800,37.423120849609376,0.1272563934326172,-0.009942829608917236,0.00021353363990783691
1769590548293068500,37.46306860351562,-0.30130577087402344,0.014006346464157104,0.0026047825813293457
1769590548333011700,37.50301171875,0.17274856567382812,-0.002882532775402069,0.0456620454788208
1769590548372955000,37.542954833984375,0.08417797088623047,0.0090956911444664,-0.0003090202808380127
1769590548412900400,37.582900390625,0.1296672821044922,-0.02202174812555313,0.0020822882652282715
1769590548452848600,37.6228486328125,0.08657264709472656,0.006617642939090729,-0.026651889085769653
1769590548492788700,37.662788818359374,0.09136104583740234,-0.019718512892723083,0.014061719179153442
1769590548532734700,37.70273461914063,0.1392383575439453,0.009254656732082367,-0.012156456708908081
1769590548572668400,37.74266845703125,0.1009359359741211,-0.007167115807533264,-0.022031277418136597
1769590548612620000,37.7826201171875,0.09854412078857422,0.009470291435718536,-0.0004742443561553955
1769590548652568000,37.822568115234375,0.0961599349975586,-0.014468163251876831,-0.0008345842361450195
1769590548692516600,37.8625166015625,0.1128997802734375,-0.033305756747722626,-0.014683663845062256
1769590548732460500,37.90246044921875,0.0889425277709961,-0.0018442943692207336,0.00005716085433959961
1769590548772403500,37.94240356445312,0.09370994567871094,-0.027770541608333588,-0.0137576162815094
1769590548812345900,37.98234594726563,0.09132957458496094,0.0081496462225914,0.004914820194244385
1769590548852292600,38.02229272460937,0.10329341888427734,0.0011743083596229553,-0.026037663221359253
1769590548892236300,38.062236328125,0.07934093475341797,-0.0009171739220619202,-0.016253501176834106
1769590548932181200,38.10218115234375,0.10568046569824219,-0.0057091787457466125,0.012358754873275757
1769590548972121900,38.14212182617187,0.09611129760742188,-0.015086241066455841,-0.021474570035934448
1769590549012063200,38.182063232421875,0.10568046569824219,0.0016695410013198853,-0.018848150968551636
1769590549051997000,38.221996826171875,0.12244033813476562,0.006354518234729767,-0.002052873373031616
1769590549091936300,38.261936279296876,0.0601959228515625,0.006238564848899841,0.00022032856941223145
1769590549131874300,38.30187426757813,0.09849739074707031,0.0014510899782180786,-0.011542588472366333
1769590549171811300,38.34181127929688,0.08412837982177734,0.0181528702378273,-0.02336743474006653
1769590549211748000,38.381748046875,0.11286067962646484,-0.0011130943894386292,0.005360156297683716
1769590549251691300,38.421691162109376,0.11525535583496094,-0.0013615190982818604,-0.013728886842727661
1769590549291636000,38.461635986328126,0.06737327575683594,0.015353165566921234,0.0005748867988586426
1769590549331579000,38.501578857421876,0.10329151153564453,0.012846574187278748,0.010029196739196777
1769590549371510800,38.5415107421875,0.08174705505371094,-0.020661495625972748,-0.011642545461654663
1769590549411399200,38.58139916992187,0.07456684112548828,0.0009170696139335632,-0.016500025987625122
1769590549451321300,38.6213212890625,0.08654499053955078,0.005699560046195984,-0.011979103088378906
1769590549491250200,38.661250244140625,0.06738567352294922,-0.01333809643983841,-0.016593098640441895
1769590549531190300,38.70119018554688,0.10329246520996094,-0.0036517083644866943,-0.02122226357460022
1769590549571129000,38.74112915039063,0.08892440795898438,0.008089087903499603,-0.004279196262359619
1769590549611058200,38.78105810546875,0.09610652923583984,0.012820988893508911,-0.004266023635864258
1769590549650996700,38.82099682617188,0.0769510269165039,0.007935598492622375,-0.016111910343170166
1769590549690926000,38.860926025390626,0.06020069122314453,0.012404121458530426,0.0004949271678924561
1769590549730865400,38.90086547851563,0.07456684112548828,0.000491313636302948,-0.0115584135055542
1769590549770806000,38.940805908203124,0.08174324035644531,-0.009158484637737274,-0.030479758977890015
1769590549810749200,38.980749267578126,0.1128387451171875,-0.025448255240917206,-0.036838799715042114
1769590549850690800,39.02069091796875,0.09846973419189453,-0.006323292851448059,0.013545781373977661
1769590549890635500,39.06063549804688,0.10564613342285156,-0.010862499475479126,-0.01747363805770874
1769590549930578400,39.10057836914063,0.12240123748779297,-0.013071268796920776,0.013717114925384521
1769590549970531000,39.14053100585937,0.0793142318725586,0.00135716050863266,-0.010513544082641602
1769590550010484000,39.18048388671875,0.10085868835449219,-0.027317121624946594,0.003929346799850464
1769590550050439200,39.220439208984374,0.09366893768310547,-0.015000768005847931,-0.01512223482131958
1769590550090380000,39.26038012695312,0.09606552124023438,-0.0028913989663124084,0.02064615488052368
1769590550130327600,39.30032763671875,0.07690811157226562,-0.01950395107269287,-0.01040726900100708
1769590550170274600,39.34027465820313,0.05536842346191406,-0.005011416971683502,-0.0011462271213531494
1769590550210220800,39.380220703125,0.08889198303222656,-0.005127452313899994,0.010703682899475098
1769590550250168300,39.42016821289062,0.06016063690185547,-0.002606503665447235,0.01309502124786377
1769590550290115300,39.460115234375,0.0865011215209961,-0.021578751504421234,-0.003905177116394043
1769590550330055700,39.5000556640625,0.10087394714355469,-0.004819490015506744,0.0006560385227203369
1769590550370003000,39.5400029296875,0.10088062286376953,0.021281152963638306,-0.006647586822509766
1769590550409947100,39.57994702148437,0.11286258697509766,0.004170127213001251,-0.002101212739944458
1769590550449897500,39.6198974609375,0.09610557556152344,-0.0028893128037452698,-0.007010668516159058
1769590550489839900,39.65983984375,0.105682373046875,-0.012458935379981995,0.002563387155532837
1769590550529779200,39.699779296875,0.0793447494506836,-0.00036121904850006104,0.019319921731948853
1769590550569726000,39.73972583007812,0.11525630950927734,0.006951779127120972,-0.01420322060585022
1769590550609682200,39.77968212890625,0.09850502014160156,0.004441544413566589,-0.012049674987792969
1769590550649638000,39.81963793945312,0.08892440795898438,0.006888099014759064,-0.026300787925720215
1769590550689594000,39.859593994140624,0.07456111907958984,-0.002808317542076111,0.007217973470687866
1769590550729547500,39.89954760742187,0.0841379165649414,-0.005272164940834045,-0.023886293172836304
1769590550769499100,39.9394990234375,0.11047077178955078,-0.005233459174633026,0.0025346577167510986
1769590550809445400,39.9794453125,0.08174324035644531,-0.0004052966833114624,-0.007168203592300415
1769590550849393200,40.01939306640625,0.10807991027832031,-0.014906026422977448,0.0024726688861846924
1769590550889336800,40.0593369140625,0.08893299102783203,-0.0007764101028442383,-0.0024367868900299072
1769590550929279200,40.099279296875,0.1176614761352539,-0.0030438601970672607,-0.004833906888961792
1769590550969214700,40.139214599609375,0.05781364440917969,-0.000638909637928009,-0.009865760803222656
1769590551009159700,40.17915966796875,0.14161109924316406,0.008941493928432465,0.004498004913330078
1769590551049101800,40.21910180664062,0.10331439971923828,-0.012602679431438446,-0.005439072847366333
1769590551089041200,40.259041259765624,0.07698249816894531,0.016100510954856873,-0.012751191854476929
1769590551128981000,40.29898095703125,0.1033163070678711,0.015931345522403717,-0.024588733911514282
1769590551168926500,40.33892651367187,0.07937812805175781,-0.0008753985166549683,-0.0007354319095611572
1769590551208867300,40.37886743164062,0.06501293182373047,0.011010967195034027,-0.005513250827789307
1769590551248807200,40.41880712890625,0.10571956634521484,-0.000833265483379364,0.0014273524284362793
1769590551288748800,40.458748779296876,0.0650186538696289,-0.0010687857866287231,0.00633394718170166
1769590551328696800,40.49869677734375,0.09136104583740234,0.0013326480984687805,-0.013061702251434326
1769590551368642000,40.53864208984375,0.08656978607177734,0.0013398528099060059,-0.0057623982429504395
1769590551408580900,40.578580810546875,0.08177757263183594,0.013117775321006775,-0.01516011357307434
1769590551448518700,40.6185185546875,0.08896827697753906,-0.020397454500198364,0.006147116422653198
1769590551488460500,40.65846044921875,0.10572624206542969,0.022458761930465698,-0.02724587917327881
1769590551528404200,40.698404296875,0.12248420715332031,-0.006141267716884613,0.023027926683425903
1769590551568341500,40.738341552734376,0.09614276885986328,0.00579313188791275,-0.04144787788391113
1769590551608276200,40.77827612304687,0.12007999420166016,-0.017788968980312347,0.006474435329437256
1769590551648308000,40.81830786132812,0.09853076934814453,0.006177976727485657,-0.015009462833404541
1769590551688242400,40.858242431640626,0.07459735870361328,-0.003464609384536743,-0.008099228143692017
1769590551728151000,40.89815112304687,0.09134387969970703,-0.008262984454631805,-0.01728406548500061
1769590551768089900,40.93808984375,0.07219505310058594,-0.0034184232354164124,0.001707315444946289
1769590551808035600,40.97803564453125,0.110504150390625,-0.017600513994693756,-0.0008122622966766357
1769590551847985000,41.01798486328125,0.06023120880126953,0.015809491276741028,0.0014579296112060547
1769590551887934500,41.0579345703125,0.12726497650146484,-0.017705723643302917,0.01594129204750061
1769590551927879000,41.09787890625,0.08897686004638672,0.003494150936603546,-0.015665888786315918
1769590551967826000,41.137825927734376,0.06982421875,-0.006126716732978821,-0.01088559627532959
1769590552007771400,41.177771484375,0.09136104583740234,-0.010841362178325653,-0.027340561151504517
1769590552047716900,41.217716796875,0.08657455444335938,-0.020118162035942078,-0.0035913586616516113
1769590552087641900,41.25764184570313,0.12249755859375,0.0037079453468322754,0.008139103651046753
1769590552127580200,41.297580078125,0.12967967987060547,-0.0032355114817619324,0.0008369684219360352
1769590552167523300,41.3375234375,0.07462215423583984,0.0014369189739227295,0.012567371129989624
1769590552207464000,41.3774638671875,0.10814476013183594,-0.005738452076911926,0.014839082956314087
1769590552247402800,41.41740283203125,0.05547904968261719,0.006004273891448975,0.012320995330810547
1769590552287349000,41.45734887695313,0.06984901428222656,0.001096293330192566,-0.002163827419281006
1769590552327288600,41.49728857421875,0.0770425796508789,-0.010863862931728363,-0.002526909112930298
1769590552367230700,41.537230712890626,0.08183574676513672,0.0057832300662994385,0.004533231258392334
1769590552407174400,41.57717431640625,0.08662223815917969,-0.0015153512358665466,-0.0025313198566436768
1769590552447125200,41.617125244140624,0.08662033081054688,0.005794122815132141,-0.007322579622268677
1769590552487072300,41.657072265625,0.09619522094726562,-0.0015008524060249329,0.014341920614242554
1769590552526977300,41.69697729492187,0.09620094299316406,0.02685965597629547,-0.012046992778778076
1769590552566917400,41.73691748046875,0.09619903564453125,-0.00893382728099823,0.007106602191925049
1769590552606868200,41.7768681640625,0.1009969711303711,0.005319066345691681,-0.002712249755859375
1769590552646807600,41.8168076171875,0.09621429443359375,-0.013707749545574188,-0.0005601942539215088
1769590552686749200,41.856749267578124,0.06508731842041016,-0.0014940053224563599,-0.010138481855392456
1769590552726681900,41.89668188476563,0.10339546203613281,0.0031784474849700928,0.00901368260383606
1769590552766616300,41.9366162109375,0.09381771087646484,0.00318358838558197,-0.026834845542907715
1769590552806547500,41.97654736328125,0.09141826629638672,-0.015737049281597137,-0.002861320972442627
1769590552846478800,42.016478759765626,0.09381294250488281,0.00583939254283905,-0.007639557123184204
1769590552886415600,42.05641552734375,0.1033926010131836,0.003565587103366852,-0.014954924583435059
1769590552926350800,42.09635083007812,0.05550861358642578,-0.013186618685722351,0.0018015801906585693
1769590552966288600,42.13628857421875,0.08662986755371094,0.013378024101257324,-0.012570232152938843
1769590553006228200,42.176228271484376,0.12254714965820312,-0.02015163004398346,-0.003114551305770874
1769590553046164500,42.21616455078125,0.06988143920898438,0.008586056530475616,-0.005750745534896851
1769590553086105000,42.25610498046875,0.09861183166503906,-0.027231529355049133,0.001401454210281372
1769590553125992000,42.295991943359375,0.1105947494506836,0.015748947858810425,-0.010929495096206665
1769590553165920300,42.335920166015626,0.09384441375732422,0.01324617862701416,0.00798085331916809
1769590553205854700,42.37585473632812,0.10822200775146484,-0.006027020514011383,-0.013925701379776001
1769590553245798400,42.41579833984375,0.10343170166015625,-0.0059711262583732605,-0.01386946439743042
1769590553285738500,42.45573852539062,0.09146308898925781,0.0036093220114707947,0.01952826976776123
1769590553325675300,42.49567529296875,0.12019920349121094,0.003497011959552765,-0.016507208347320557
1769590553365611500,42.53561157226562,0.06273174285888672,-0.018000774085521698,-0.023476988077163696
1769590553405557500,42.5755576171875,0.12496089935302734,-0.027249261736869812,-0.008618444204330444
1769590553445503700,42.615503662109376,0.09143257141113281,0.011304013431072235,-0.025142937898635864
1769590553485447200,42.655447265625,0.08663272857666016,0.013406626880168915,-0.017484188079833984
1769590553525387500,42.695387451171875,0.10338497161865234,-0.0009612515568733215,-0.007642924785614014
1769590553565324500,42.735324462890624,0.07225894927978516,-0.01055646687746048,-0.021967917680740356
1769590553605262000,42.775261962890625,0.10815715789794922,0.001363500952720642,-0.021453887224197388
1769590553645208800,42.815208740234375,0.08899497985839844,0.003886871039867401,-0.016411632299423218
1769590553685162200,42.855162353515624,0.07940387725830078,0.0039945244789123535,0.0031502842903137207
1769590553725111000,42.895111083984375,0.1033487319946289,0.011116117238998413,-0.008903264999389648
1769590553765056800,42.93505688476562,0.06025886535644531,-0.008137546479701996,-0.006632953882217407
1769590553805003000,42.9750029296875,0.1248931884765625,-0.008076302707195282,-0.011154651641845703
1769590553844948200,43.0149482421875,0.0913848876953125,-0.000893712043762207,0.00045758485794067383
1769590553884894700,43.05489477539062,0.10336112976074219,0.0037890970706939697,-0.009254127740859985
1769590553924836600,43.094836669921875,0.07461738586425781,-0.0009870529174804688,-0.008803039789199829
1769590553964782800,43.134782958984374,0.11531925201416016,-0.010679766535758972,0.0007724463939666748
1769590554004729300,43.17472924804687,0.1081399917602539,0.006199255585670471,0.0006528198719024658
1769590554044674300,43.21467431640625,0.11053276062011719,-0.015221744775772095,-0.0017442703247070312
1769590554084625200,43.25462524414063,0.09616851806640625,0.010997086763381958,-0.016136378049850464
1769590554124574700,43.29457470703125,0.06744194030761719,0.008367329835891724,0.0030158162117004395
1769590554164516600,43.3345166015625,0.0722360610961914,0.003698483109474182,-0.0044059157371521
1769590554204466200,43.374466064453124,0.10814666748046875,-0.008026137948036194,-0.004408836364746094
1769590554244414500,43.41441455078125,0.07702255249023438,0.00897248089313507,-0.002134263515472412
1769590554284362800,43.45436279296875,0.07942008972167969,-0.005389124155044556,0.002533137798309326
1769590554324306000,43.494305908203124,0.08899688720703125,0.00406203418970108,-0.018975019454956055
1769590554364261400,43.53426147460937,0.07942867279052734,0.006104707717895508,0.0024503469467163086
1769590554404217300,43.57421728515625,0.0890188217163086,-0.0059786513447761536,-0.00030550360679626465
1769590554444180200,43.61418017578125,0.07944202423095703,-0.008427783846855164,-0.012294501066207886
1769590554484138200,43.65413818359375,0.09380531311035156,-0.001172386109828949,-0.021827399730682373
1769590554524100000,43.69410009765625,0.08422088623046875,-0.012869574129581451,-0.009725421667098999
1769590554564058000,43.73405810546875,0.06746387481689453,0.013589918613433838,0.00930708646774292
1769590554604010200,43.77401025390625,0.10098552703857422,0.0037811249494552612,-0.00506100058555603
1769590554643955700,43.81395581054687,0.08661460876464844,0.0012657120823860168,-0.01441490650177002
1769590554683903000,43.853903076171875,0.11295223236083984,-0.022645898163318634,0.0023193061351776123
1769590554723844000,43.893843994140624,0.07464122772216797,0.0013016611337661743,-0.026327848434448242
1769590554763792000,43.9337919921875,0.1057443618774414,-0.0008549690246582031,-0.03527483344078064
1769590554803734000,43.97373413085938,0.10094451904296875,-0.01988750696182251,0.0009574294090270996
1769590554843682300,44.013682373046876,0.10571956634521484,-0.03390698879957199,-0.0035198628902435303
1769590554883626200,44.05362622070312,0.10091781616210938,0.006970569491386414,-0.012743592262268066
1769590554923569000,44.09356884765625,0.08176136016845703,-0.007018230855464935,-0.010390043258666992
1769590554963499300,44.133499267578124,0.09612560272216797,0.009527809917926788,-0.015073716640472412
1769590555003434200,44.17343432617187,0.11050128936767578,-0.0023200586438179016,0.010902434587478638
1769590555043367400,44.21336743164063,0.09375,0.0071443915367126465,0.0034777820110321045
1769590555083311900,44.253311767578126,0.09376144409179688,-0.0025383755564689636,-0.015970975160598755
1769590555123251700,44.29325170898438,0.09134769439697266,-0.016569457948207855,-0.029832571744918823
1769590555163147500,44.3331474609375,0.09612464904785156,0.016792595386505127,-0.015048086643218994
1769590555203070200,44.3730703125,0.11047935485839844,-0.00032733380794525146,-0.014559030532836914
1769590555242997500,44.41299755859375,0.04104137420654297,0.01405346393585205,-0.014360964298248291
1769590555282929200,44.45292919921875,0.0793447494506836,0.0018029585480690002,-0.0021338164806365967
1769590555322859300,44.492859375,0.08892250061035156,-0.012685291469097137,-0.0021323561668395996
1769590555362789600,44.53278955078125,0.048226356506347656,0.0040915533900260925,-0.014295637607574463
1769590555402729500,44.5727294921875,0.09370994567871094,0.013485699892044067,-0.006839781999588013
1769590555442671400,44.61267138671875,0.0865163803100586,0.0014625713229179382,-0.02079877257347107
1769590555482612700,44.65261279296875,0.11523628234863281,0.015746764838695526,-0.02042520046234131
1769590555522553300,44.69255322265625,0.06974506378173828,0.01818215847015381,0.003569096326828003
1769590555562493400,44.732493408203126,0.07454299926757812,-0.008030921220779419,0.012785762548446655
1769590555602438100,44.77243823242188,0.10328865051269531,0.0014335140585899353,-0.009243160486221313
1769590555642386000,44.812385986328124,0.10568809509277344,-0.00536789745092392,-0.014379739761352539
1769590555682333000,44.8523330078125,0.12244796752929688,-0.0006688982248306274,-0.007162630558013916
1769590555722256600,44.89225659179687,0.057808876037597656,0.01350557804107666,-0.00960993766784668
1769590555762206200,44.93220629882813,0.10330390930175781,0.004048079252243042,-0.0002720654010772705
1769590555802156800,44.97215673828125,0.09132099151611328,0.006327465176582336,-0.03813368082046509
1769590555842105000,45.01210498046875,0.08174419403076172,0.001256003975868225,-0.009300708770751953
1769590555882055000,45.052054931640626,0.12244319915771484,-0.008382707834243774,-0.006797045469284058
1769590555922006300,45.09200634765625,0.08414077758789062,-0.0012821853160858154,-0.004500836133956909
1769590555961962800,45.131962646484375,0.12005996704101562,-0.020385950803756714,0.000042557716369628906
1769590556001907000,45.17190698242187,0.10090160369873047,-0.0060028210282325745,-0.007013916969299316
1769590556041852700,45.21185278320313,0.09850597381591797,-0.013003885746002197,-0.004606127738952637
1769590556081794000,45.2517939453125,0.0937204360961914,-0.005672626197338104,0.000035643577575683594
1769590556121736200,45.291736083984375,0.11287593841552734,0.013607755303382874,-0.004875212907791138
1769590556161678300,45.33167822265625,0.06499099731445312,-0.005723118782043457,-0.02633613348007202
1769590556201621500,45.37162158203125,0.1248464584350586,0.008634105324745178,0.0023765265941619873
1769590556241571000,45.41157104492188,0.048229217529296875,-0.012734316289424896,-0.014369994401931763
1769590556281521700,45.45152172851562,0.11526966094970703,0.006434157490730286,-0.0048888325691223145
1769590556321468400,45.49146850585937,0.0889291763305664,-0.0030230656266212463,-0.0023750364780426025
1769590556361420500,45.53142065429687,0.10569095611572266,-0.010226041078567505,-0.00965261459350586
1769590556401367600,45.571367431640624,0.06737041473388672,-0.021954335272312164,-0.011718153953552246
1769590556441313300,45.61131323242188,0.07216262817382812,-0.010002687573432922,-0.0022304654121398926
1769590556481259300,45.65125927734375,0.1008920669555664,0.013742603361606598,-0.02367570996284485
1769590556521204200,45.69120434570313,0.08174705505371094,-0.010247603058815002,0.004793047904968262
1769590556561145900,45.73114575195312,0.0937204360961914,-0.0006072670221328735,-0.009650051593780518
1769590556601087500,45.77108740234375,0.12723636627197266,0.009071409702301025,-0.02637442946434021
1769590556641019000,45.81101879882812,0.08652877807617188,-0.0052524134516716,0.00012746453285217285
1769590556680951600,45.85095166015625,0.09611129760742188,0.004204079508781433,-0.01196262240409851
1769590556720886300,45.89088623046875,0.09610748291015625,-0.012702636420726776,-0.006996899843215942
1769590556760823600,45.93082348632812,0.0889139175415039,0.004214338958263397,-0.021043837070465088
1769590556800759600,45.970759521484375,0.11047840118408203,-0.005300000309944153,-0.00008144974708557129
1769590556840705000,46.010705078125,0.06977081298828125,-0.005209609866142273,-0.019076555967330933
1769590556880641800,46.050641845703126,0.09371089935302734,0.011634886264801025,-0.02143263816833496
1769590556920578300,46.09057836914062,0.12004280090332031,-0.005097411572933197,0.005017995834350586
1769590556960512300,46.13051220703125,0.108062744140625,-0.00027871131896972656,-0.016216576099395752
1769590557000452000,46.1704521484375,0.07694149017333984,0.006900325417518616,0.0052131712436676025
1769590557040387300,46.21038720703125,0.09609699249267578,-0.012078337371349335,-0.009298861026763916
1769590557080325600,46.25032568359375,0.11046028137207031,0.02132090926170349,0.005185842514038086
1769590557120267000,46.29026708984375,0.08652496337890625,-0.005017220973968506,-0.01659044623374939
1769590557160212000,46.3302119140625,0.07695484161376953,-0.0002252236008644104,-0.004860043525695801
1769590557200158200,46.370158203125,0.09370994567871094,0.014189183712005615,-0.014278262853622437
1769590557240109800,46.41010986328125,0.06257438659667969,-0.00971982628107071,-0.021122068166732788
1769590557280056000,46.45005615234375,0.09128952026367188,0.002262905240058899,-0.018226802349090576
1769590557320001000,46.4900009765625,0.0865030288696289,-0.017027929425239563,0.0033253133296966553
1769590557359944700,46.52994482421875,0.1128387451171875,0.0019282475113868713,-0.0037739574909210205
1769590557399897300,46.5698974609375,0.10326671600341797,-0.010206736624240875,-0.0014389753341674805
1769590557439845600,46.609845703125,0.07694244384765625,-0.0006714910268783569,-0.018612056970596313
1769590557479791600,46.64979150390625,0.12004375457763672,-0.007723785936832428,0.007480651140213013
1769590557519731000,46.68973095703125,0.0889291763305664,0.018384046852588654,0.004842907190322876
1769590557559667500,46.72966748046875,0.12245464324951172,-0.01982283592224121,-0.012167215347290039
1769590557599601700,46.7696015625,0.10329627990722656,0.0038800686597824097,-0.0023512840270996094
1769590557639545600,46.809545654296876,0.07217216491699219,0.020679928362369537,-0.007160156965255737
1769590557679468800,46.84946875,0.1152639389038086,-0.012798257172107697,-0.01663583517074585
1769590557719396900,46.88939697265625,0.06258487701416016,0.013458110392093658,-0.021185696125030518
1769590557759339800,46.92933984375,0.12004947662353516,-0.012910284101963043,-0.016488343477249146
1769590557799286800,46.96928686523437,0.07455253601074219,0.0038808584213256836,-0.021027833223342896
1769590557839234800,47.00923486328125,0.067352294921875,-0.01522284746170044,-0.01570454239845276
1769590557879185400,47.04918530273437,0.08889102935791016,0.001514628529548645,-0.017765700817108154
1769590557919138000,47.089137939453124,0.07211780548095703,-0.00083111971616745,-0.0029841959476470947
1769590557959091500,47.12909155273437,0.08648681640625,0.016008742153644562,-0.0007400214672088623
1769590557999040800,47.169040771484376,0.08648681640625,-0.007918648421764374,-0.01033240556716919
1769590558038989600,47.20898950195313,0.0912790298461914,-0.005517281591892242,0.0015161633491516113
1769590558078939000,47.24893896484375,0.11762237548828125,0.006221666932106018,0.0037878453731536865
1769590558118892000,47.28889208984375,0.07932281494140625,0.01333676278591156,-0.015585541725158691
1769590558158837500,47.32883740234375,0.0817251205444336,0.003886707127094269,0.0223599374294281
1769590558198791400,47.36879150390625,0.08890819549560547,0.0060525014996528625,-0.003860950469970703
1769590558238738000,47.40873803710937,0.0793313980102539,-0.024933360517024994,-0.018318980932235718
1769590558278691800,47.44869189453125,0.07933425903320312,-0.0008717626333236694,-0.0016791224479675293
1769590558318629600,47.488629638671874,0.06497478485107422,0.0016492754220962524,0.0004730820655822754
1769590558358573300,47.5285732421875,0.08413028717041016,0.018236607313156128,-0.01391187310218811
1769590558398516000,47.568515869140626,0.05300426483154297,0.0061723291873931885,-0.016198784112930298
1769590558438462000,47.6084619140625,0.09371280670166016,0.0061830878257751465,0.007499814033508301
1769590558478403800,47.64840380859375,0.08893013000488281,0.008704029023647308,0.012046128511428833
